,ACC_x,ACC_y,ACC_z,GYR_x,GYR_y,GYR_z,Q_0,Q_1,Q_2,Q_3,Pitch,Yaw
20,0.59,0.676,0.491,3.479,4.882,-1.037,0,0,0,0,-35.288,53.585
40,0.578,0.667,0.487,2.563,2.502,-0.183,0,0,0,0,-35.205,53.629
60,0.562,0.647,0.477,2.563,0.976,-0.366,0,0,0,0,-35.189,53.646
80,0.562,0.647,0.477,2.563,0.976,-0.366,0,0,0,0,-35.178,53.668
100,0.562,0.654,0.473,4.333,1.159,-0.244,0,0,0,0,-35.161,53.717
120,0.576,0.672,0.477,2.624,2.99,2.99,0,0,0,0,-35.161,53.761
140,0.575,0.687,0.469,-2.746,11.962,7.751,0,0,0,0,-35.15,53.591
160,0.575,0.687,0.469,-2.746,11.962,7.751,0,0,0,0,-35.145,53.536
180,0.561,0.683,0.449,-10.742,15.441,23.193,0,0,0,0,-35.332,52.992
200,0.575,0.633,0.498,-10.192,13.305,13.61,0,0,0,0,-35.386,52.509
220,0.585,0.625,0.516,-7.141,11.23,10.253,0,0,0,0,-35.408,52.223
240,0.589,0.627,0.521,-1.464,3.906,3.417,0,0,0,0,-35.425,52.003
260,0.589,0.637,0.51,-0.915,1.586,1.159,0,0,0,0,-35.425,51.992
280,0.589,0.637,0.51,-0.915,1.586,1.159,0,0,0,0,-35.425,51.948
300,0.575,0.637,0.495,-0.488,1.22,0.976,0,0,0,0,-35.43,51.86
320,0.569,0.64,0.503,0.122,0.183,0.122,0,0,0,0,-35.425,51.838
340,0.572,0.639,0.506,0.488,-0.366,-0.793,0,0,0,0,-35.408,51.855
360,0.579,0.645,0.502,-0.427,0.061,-1.098,0,0,0,0,-35.397,51.86
380,0.583,0.649,0.499,0.061,-0.183,-1.098,0,0,0,0,-35.381,51.871
400,0.583,0.649,0.499,0.061,-0.183,-1.098,0,0,0,0,-35.375,51.882
420,0.577,0.643,0.5,0.915,-0.793,-1.342,0,0,0,0,-35.364,51.921
440,0.576,0.636,0.502,0,-0.793,-1.586,0,0,0,0,-35.354,51.932
460,0.578,0.64,0.498,0.183,0,-1.647,0,0,0,0,-35.343,51.948
480,0.586,0.648,0.501,1.892,0.976,-1.22,0,0,0,0,-35.304,51.992
500,0.585,0.653,0.501,1.892,0.793,0.061,0,0,0,0,-35.293,52.009
520,0.585,0.653,0.501,1.892,0.793,0.061,0,0,0,0,-35.293,52.009
540,0.58,0.646,0.508,1.586,0.305,0.183,0,0,0,0,-35.288,52.042
560,0.58,0.646,0.508,1.586,0.305,0.183,0,0,0,0,-35.288,52.058
580,0.57,0.639,0.498,1.342,-0.366,0.427,0,0,0,0,-35.293,52.086
600,0.578,0.647,0.502,2.38,0.122,-0.061,0,0,0,0,-35.304,52.229
620,0.577,0.645,0.499,0.183,0,0,0,0,0,0,-35.304,52.256
640,0.577,0.644,0.499,1.098,-0.183,-0.061,0,0,0,0,-35.304,52.272
660,0.579,0.647,0.494,1.77,0.854,-0.122,0,0,0,0,-35.293,52.305
680,0.579,0.647,0.494,1.77,0.854,-0.122,0,0,0,0,-35.293,52.311
700,0.572,0.646,0.497,2.258,0.366,0,0,0,0,0,-35.288,52.344
720,0.572,0.644,0.5,1.464,0.549,-0.366,0,0,0,0,-35.282,52.36
740,0.578,0.65,0.496,2.075,0.183,-0.488,0,0,0,0,-35.249,52.432
760,0.583,0.656,0.5,1.342,0.305,-0.427,0,0,0,0,-35.244,52.465
780,0.583,0.656,0.5,1.342,0.305,-0.427,0,0,0,0,-35.233,52.487
800,0.577,0.649,0.499,1.098,0.183,0,0,0,0,0,-35.233,52.492
820,0.577,0.649,0.499,1.098,0.183,0,0,0,0,0,-35.233,52.503
840,0.572,0.643,0.495,0.488,-0.366,-0.305,0,0,0,0,-35.238,52.514
860,0.58,0.656,0.499,2.014,0.732,0,0,0,0,0,-35.227,52.569
880,0.575,0.653,0.495,2.624,1.342,-0.244,0,0,0,0,-35.216,52.597
900,0.575,0.653,0.495,2.624,1.342,-0.244,0,0,0,0,-35.205,52.619
920,0.578,0.661,0.497,6.713,0,-0.244,0,0,0,0,-35.2,52.701
940,0.573,0.646,0.49,7.568,-3.295,0.427,0,0,0,0,-35.205,52.816
960,0.578,0.652,0.486,7.263,-3.295,1.953,0,0,0,0,-35.293,53.08
980,0.574,0.655,0.484,12.573,-2.99,3.112,0,0,0,0,-35.414,53.366
1000,0.573,0.657,0.481,21.545,-3.54,2.563,0,0,0,0,-35.496,53.673
1020,0.585,0.664,0.474,32.348,-7.019,3.356,0,0,0,0,-35.623,54.36
1040,0.606,0.692,0.46,45.41,-14.77,5.004,0,0,0,0,-35.82,55.239
1060,0.583,0.676,0.442,58.349,-26.062,10.925,0,0,0,0,-36.183,56.464
1080,0.565,0.653,0.431,52.001,-29.663,17.883,0,0,0,0,-36.567,57.48
1100,0.565,0.653,0.431,52.001,-29.663,17.883,0,0,0,0,-36.87,58.106
1120,0.588,0.654,0.407,49.438,-30.151,23.681,0,0,0,0,-37.556,59.309
1140,0.666,0.692,0.359,54.138,-51.269,34.301,0,0,0,0,-39.407,62.133
1160,0.671,0.659,0.339,83.007,-58.837,51.269,0,0,0,0,-40.418,63.594
1180,0.671,0.659,0.339,83.007,-58.837,51.269,0,0,0,0,-41.138,64.676
1200,0.706,0.62,0.284,91.735,-89.477,78.369,0,0,0,0,-43.143,67.269
1220,0.706,0.62,0.284,91.735,-89.477,78.369,0,0,0,0,-43.681,67.966
1240,0.706,0.664,0.198,60.668,-36.926,76.232,0,0,0,0,-47.367,70.521
1260,0.761,0.622,0.217,63.659,-27.343,77.88,0,0,0,0,-49.026,71.85
1280,0.751,0.605,0.256,59.814,-14.343,80.078,0,0,0,0,-49.833,72.399
1300,0.759,0.599,0.274,9.338,9.765,71.411,0,0,0,0,-51.668,72.729
1320,0.767,0.619,0.177,-5.249,16.967,47.851,0,0,0,0,-52.882,71.729
1340,0.75,0.569,0.167,2.99,5.981,39.062,0,0,0,0,-53.931,70.779
1360,0.732,0.508,0.176,1.953,12.207,49.499,0,0,0,0,-54.689,70.208
1380,0.732,0.508,0.176,1.953,12.207,49.499,0,0,0,0,-55.107,69.829
1400,0.828,0.489,0.194,16.113,-14.099,43.518,0,0,0,0,-56.013,69.521
1420,0.828,0.489,0.194,16.113,-14.099,43.518,0,0,0,0,-56.705,69.702
1440,0.826,0.416,0.175,53.466,-22.46,110.778,0,0,0,0,-58.623,70.35
1460,0.896,0.395,0.17,63.049,-26.611,149.23,0,0,0,0,-61.073,70.806
1480,0.921,0.338,0.153,68.725,2.502,219.299,0,0,0,0,-64.374,70.609
1500,0.921,0.338,0.153,68.725,2.502,219.299,0,0,0,0,-66.439,69.587
1520,0.921,0.338,0.153,68.725,2.502,219.299,0,0,0,0,-67.461,68.983
1540,0.898,0.24,0.122,41.87,10.314,237.731,0,0,0,0,-72.998,61.539
1560,0.934,0.164,0.127,27.221,-17.822,180.114,0,0,0,0,-76.728,53.256
1580,1.059,0.119,0.149,44.128,-30.761,166.198,0,0,0,0,-80.991,38.562
1600,1.007,0.038,0.124,41.809,-11.657,137.817,0,0,0,0,-83.507,8.399
1620,0.942,0.002,0.118,33.569,-7.019,102.417,0,0,0,0,-83.6,-13.595
1640,0.942,0.002,0.118,33.569,-7.019,102.417,0,0,0,0,-83.182,-25.691
1660,0.911,-0.053,0.144,7.995,-2.319,70.556,0,0,0,0,-82.479,-35.216
1680,1.048,-0.105,0.096,-4.638,-12.207,-7.629,0,0,0,0,-82.386,-36.177
1700,1.048,-0.105,0.096,-4.638,-12.207,-7.629,0,0,0,0,-82.457,-36.276
1720,1.044,-0.101,0.104,-1.586,-19.409,-6.347,0,0,0,0,-82.787,-37.04
1740,0.99,-0.107,0.128,1.037,-12.451,-2.99,0,0,0,0,-83.029,-37.847
1760,0.934,-0.114,0.145,0.244,-3.54,7.446,0,0,0,0,-83.106,-39.484
1780,0.912,-0.115,0.133,-2.258,17.761,17.883,0,0,0,0,-82.54,-40.215
1800,0.975,-0.117,0.084,-6.53,38.208,19.958,0,0,0,0,-81.43,-37.941
1820,0.975,-0.117,0.084,-6.53,38.208,19.958,0,0,0,0,-81.007,-37.611
1840,0.957,-0.128,0.14,0,21.789,35.766,0,0,0,0,-80.194,-38.809
1860,0.963,-0.143,0.178,3.356,9.216,55.603,0,0,0,0,-79.546,-41.198
1880,0.95,-0.179,0.192,-8.056,1.831,80.139,0,0,0,0,-77.865,-48.466
1900,0.965,-0.183,0.193,-16.357,1.159,106.079,0,0,0,0,-76.168,-54.338
1920,0.955,-0.195,0.146,-41.503,6.774,120.666,0,0,0,0,-74.608,-58.441
1940,0.994,-0.301,0.133,-8.056,-16.479,52.49,0,0,0,0,-71.883,-63.182
1960,0.989,-0.263,0.127,-14.343,-21.667,6.53,0,0,0,0,-71.531,-65.236
1980,0.989,-0.263,0.127,-14.343,-21.667,6.53,0,0,0,0,-71.531,-65.236
2000,0.939,-0.319,0.177,12.084,13.183,22.827,0,0,0,0,-71.092,-65.687
2020,0.9,-0.381,0.256,10.253,51.635,31.86,0,0,0,0,-70.543,-64.896
2040,0.9,-0.381,0.256,10.253,51.635,31.86,0,0,0,0,-69.713,-63.308
2060,0.915,-0.375,0.248,47.119,58.593,51.269,0,0,0,0,-67.565,-59.65
2080,0.898,-0.355,0.269,39.428,44.067,28.808,0,0,0,0,-66.176,-57.628
2100,0.898,-0.355,0.269,39.428,44.067,28.808,0,0,0,0,-65.434,-56.288
2120,0.899,-0.384,0.306,41.381,58.776,19.592,0,0,0,0,-64.396,-53.843
2140,0.795,-0.366,0.332,63.903,107.238,10.437,0,0,0,0,-62.127,-47.779
2160,0.835,-0.342,0.342,72.021,124.755,16.296,0,0,0,0,-60.292,-43.747
2180,0.928,-0.364,0.386,79.04,180.664,26.977,0,0,0,0,-57.733,-39.44
2200,0.931,-0.251,0.385,110.473,198.303,28.076,0,0,0,0,-55.316,-36.013
2220,0.931,-0.251,0.385,110.473,198.303,28.076,0,0,0,0,-54.453,-34.81
2240,0.931,-0.251,0.385,110.473,198.303,28.076,0,0,0,0,-52.69,-32.607
2260,0.931,-0.251,0.385,110.473,198.303,28.076,0,0,0,0,-52.69,-32.607
2280,0.913,0.08,0.479,181.945,281.005,20.812,0,0,0,0,-47.455,-25.713
2300,0.977,-0.497,0.541,107.91,295.043,-127.014,0,0,0,0,-40.951,-15.858
2320,0.561,0.03,0.629,-0.427,125.61,-1.098,0,0,0,0,-33.101,-10.25
2340,0.515,-0.047,0.541,-44.738,158.081,-48.278,0,0,0,0,-31.129,-9.959
2360,0.372,-0.067,0.599,-70.861,112.548,-27.648,0,0,0,0,-28.432,-10.052
2380,0.314,-0.106,0.743,-106.018,113.037,-18.249,0,0,0,0,-24.68,-12.392
2400,0.636,0.287,2.223,352.966,846.008,271.545,0,0,0,0,-12.837,-12.013
2420,0.994,-0.152,-1.782,-353.027,1594.3,-224.121,0,0,0,0,3.554,-10.612
2440,-0.885,-0.073,0.544,159.24,-520.629,-172.485,0,0,0,0,22.791,-18.671
2460,0.898,0.476,0.41,472.045,-675.476,-544.616,0,0,0,0,2.713,-10.7
2480,-0.216,-1.063,2.55,-99.182,50.476,-231.14,0,0,0,0,-1.049,-9.541
2500,-0.037,-0.117,0.518,-10.498,131.53,-16.479,0,0,0,0,-0.302,-10.629
2520,-0.037,-0.117,0.518,-10.498,131.53,-16.479,0,0,0,0,0.972,-10.755
2540,-0.037,-0.117,0.518,-10.498,131.53,-16.479,0,0,0,0,0.972,-10.755
2560,-0.037,-0.117,0.518,-10.498,131.53,-16.479,0,0,0,0,0.972,-10.755
2580,0.164,-0.019,0.757,-52.673,143.676,-49.377,0,0,0,0,5.399,-11.881
2600,-0.257,-0.258,1.32,-83.679,62.805,-37.048,0,0,0,0,9.415,-14.534
2620,-0.257,-0.258,1.32,-83.679,62.805,-37.048,0,0,0,0,9.415,-14.534
2640,-0.102,-0.377,1.091,-55.419,-17.7,-5.859,0,0,0,0,9.981,-16.457
2660,-0.103,-0.391,1.013,-39.489,-3.784,21.484,0,0,0,0,9.761,-17.583
2680,-0.103,-0.391,1.013,-39.489,-3.784,21.484,0,0,0,0,9.761,-17.583
2700,-0.373,-0.24,0.882,-49.377,-12.207,84.594,0,0,0,0,11.843,-19.638
2720,-0.148,-0.242,0.87,-31.188,-13.793,87.402,0,0,0,0,12.161,-20
2740,-0.329,-0.227,0.967,-8.605,-19.104,96.496,0,0,0,0,12.601,-19.984
2760,-0.218,-0.192,0.938,-6.713,-27.587,123.107,0,0,0,0,13.128,-19.291
2780,-0.31,-0.481,0.998,19.836,8.544,49.194,0,0,0,0,13.628,-18.775
2800,-0.192,-0.309,0.932,7.934,-9.521,64.88,0,0,0,0,14.161,-18.061
2820,-0.192,-0.309,0.932,7.934,-9.521,64.88,0,0,0,0,14.293,-17.693
2840,-0.365,-0.262,0.974,11.779,0.427,50.415,0,0,0,0,14.699,-16.979
2860,-0.365,-0.262,0.974,11.779,0.427,50.415,0,0,0,0,14.968,-16.611
2880,-0.3,-0.207,0.953,5.249,0.671,12.084,0,0,0,0,15.281,-16.21
2900,-0.214,-0.196,0.943,2.807,-3.051,7.202,0,0,0,0,15.358,-16.012
2920,-0.214,-0.196,0.943,2.807,-3.051,7.202,0,0,0,0,15.342,-15.935
2940,-0.214,-0.196,0.943,2.807,-3.051,7.202,0,0,0,0,15.342,-15.935
2960,-0.214,-0.196,0.943,2.807,-3.051,7.202,0,0,0,0,15.342,-15.935
2980,-0.259,-0.232,0.961,-0.427,0.915,1.831,0,0,0,0,15.216,-15.715
3000,-0.239,-0.235,0.963,-2.685,1.098,3.051,0,0,0,0,15.254,-15.71
3020,-0.243,-0.218,0.954,-5.371,1.586,1.77,0,0,0,0,15.27,-15.743
3040,-0.243,-0.218,0.954,-5.371,1.586,1.77,0,0,0,0,15.27,-15.743
3060,-0.25,-0.205,0.942,-4.943,-0.61,-1.098,0,0,0,0,15.276,-15.803
3080,-0.263,-0.211,0.939,-1.831,-2.563,-2.014,0,0,0,0,15.243,-15.836
3100,-0.222,-0.235,0.958,1.647,-0.915,0.183,0,0,0,0,15.051,-15.732
3120,-0.235,-0.222,0.953,2.563,-0.976,2.014,0,0,0,0,15.023,-15.677
3140,-0.235,-0.222,0.953,2.563,-0.976,2.014,0,0,0,0,15.012,-15.606
3160,-0.236,-0.22,0.954,4.272,-0.61,3.173,0,0,0,0,15.007,-15.468
3180,-0.244,-0.22,0.955,6.042,0.732,2.502,0,0,0,0,15.023,-15.347
3200,-0.231,-0.224,0.96,5.92,0.854,1.708,0,0,0,0,15.034,-15.15
3220,-0.245,-0.221,0.97,7.019,2.258,-0.061,0,0,0,0,15.062,-15.023
3240,-0.245,-0.221,0.97,7.019,2.258,-0.061,0,0,0,0,15.073,-14.985
3260,-0.249,-0.218,0.96,5.798,3.479,1.708,0,0,0,0,15.144,-14.837
3280,-0.252,-0.206,0.952,8.3,2.502,7.812,0,0,0,0,15.309,-14.447
3300,-0.239,-0.202,0.957,7.263,1.77,6.835,0,0,0,0,15.353,-14.287
3320,-0.239,-0.202,0.957,7.263,1.77,6.835,0,0,0,0,15.353,-14.287
3340,-0.253,-0.209,0.975,4.028,1.586,5.676,0,0,0,0,15.391,-14.166
3360,-0.25,-0.216,0.98,0.854,3.417,5.615,0,0,0,0,15.457,-14.067
3380,-0.258,-0.181,0.959,5.554,8.3,16.479,0,0,0,0,15.831,-13.677
3400,-0.296,-0.179,0.954,8.056,4.394,12.023,0,0,0,0,16.138,-13.271
3420,-0.296,-0.179,0.954,8.056,4.394,12.023,0,0,0,0,16.259,-13.084
3440,-0.276,-0.171,0.964,0,2.014,9.643,0,0,0,0,16.32,-13.018
3460,-0.252,-0.205,0.955,-1.098,1.647,15.014,0,0,0,0,16.364,-12.974
3480,-0.291,-0.187,0.958,3.234,1.342,16.052,0,0,0,0,16.446,-12.875
3500,-0.279,-0.177,0.95,-3.906,-0.061,10.253,0,0,0,0,16.567,-12.738
3520,-0.274,-0.186,0.958,3.723,0.061,14.587,0,0,0,0,16.622,-12.557
3540,-0.266,-0.179,0.955,-4.272,-1.098,6.713,0,0,0,0,16.622,-12.562
3560,-0.27,-0.18,0.967,-1.892,-0.671,7.141,0,0,0,0,16.627,-12.557
3580,-0.266,-0.174,0.958,-5.798,-1.403,4.394,0,0,0,0,16.622,-12.557
3600,-0.272,-0.187,0.963,0.671,-0.305,3.356,0,0,0,0,16.589,-12.601
3620,-0.273,-0.185,0.96,2.258,0.061,3.112,0,0,0,0,16.589,-12.568
3640,-0.273,-0.185,0.96,2.258,0.061,3.112,0,0,0,0,16.594,-12.524
3660,-0.273,-0.185,0.96,2.258,0.061,3.112,0,0,0,0,16.594,-12.502
3680,-0.277,-0.181,0.957,4.333,-0.61,1.892,0,0,0,0,16.594,-12.442
3700,-0.277,-0.181,0.957,4.333,-0.61,1.892,0,0,0,0,16.589,-12.414
3720,-0.274,-0.176,0.962,-1.098,-3.173,-0.122,0,0,0,0,16.539,-12.282
3740,-0.27,-0.182,0.962,-0.915,-0.976,-0.427,0,0,0,0,16.402,-12.299
3760,-0.267,-0.184,0.958,-1.647,-1.159,-0.854,0,0,0,0,16.369,-12.315
3780,-0.273,-0.182,0.962,-0.427,-0.793,-1.831,0,0,0,0,16.336,-12.315
3800,-0.28,-0.183,0.964,-1.831,-1.464,-1.281,0,0,0,0,16.331,-12.321
3820,-0.281,-0.177,0.964,-2.38,-0.427,-0.61,0,0,0,0,16.292,-12.359
3840,-0.266,-0.176,0.956,-1.281,0.427,-0.061,0,0,0,0,16.292,-12.365
3860,-0.256,-0.184,0.961,-2.258,0.366,0.122,0,0,0,0,16.287,-12.376
3880,-0.256,-0.184,0.961,-2.258,0.366,0.122,0,0,0,0,16.287,-12.376
3900,-0.256,-0.184,0.961,-2.258,0.366,0.122,0,0,0,0,16.287,-12.381
3920,-0.256,-0.184,0.961,-2.258,0.366,0.122,0,0,0,0,16.281,-12.387
3940,-0.273,-0.185,0.956,-1.098,-0.549,0.366,0,0,0,0,16.276,-12.398
3960,-0.273,-0.185,0.956,-1.098,-0.549,0.366,0,0,0,0,16.276,-12.398
3980,-0.26,-0.179,0.961,0.488,-0.488,0.122,0,0,0,0,16.182,-12.42
4000,-0.267,-0.178,0.961,1.037,0.549,0.427,0,0,0,0,16.166,-12.381
4020,-0.267,-0.178,0.961,1.037,0.549,0.427,0,0,0,0,16.171,-12.37
4040,-0.267,-0.178,0.961,1.037,0.549,0.427,0,0,0,0,16.171,-12.359
4060,-0.268,-0.187,0.959,1.525,1.525,0.549,0,0,0,0,16.204,-12.282
4080,-0.278,-0.183,0.962,-0.976,-0.549,0.244,0,0,0,0,16.226,-12.211
4100,-0.273,-0.178,0.96,2.929,1.525,0.305,0,0,0,0,16.243,-12.106
4120,-0.272,-0.178,0.961,1.892,0.915,0.183,0,0,0,0,16.254,-12.062
4140,-0.272,-0.178,0.961,1.892,0.915,0.183,0,0,0,0,16.259,-12.035
4160,-0.278,-0.18,0.96,0.549,0.427,0.488,0,0,0,0,16.265,-12.019
4180,-0.275,-0.179,0.961,0,0.122,0.915,0,0,0,0,16.27,-11.98
4200,-0.273,-0.178,0.961,-0.122,0.061,0.61,0,0,0,0,16.265,-11.969
4220,-0.273,-0.177,0.96,-0.183,0.427,-0.122,0,0,0,0,16.265,-11.936
4240,-0.279,-0.179,0.963,-0.122,0.061,-0.244,0,0,0,0,16.265,-11.925
4260,-0.279,-0.179,0.963,-0.122,0.061,-0.244,0,0,0,0,16.265,-11.925
4280,-0.279,-0.179,0.963,-0.122,0.061,-0.244,0,0,0,0,16.265,-11.925
4300,-0.265,-0.179,0.961,0.305,0.122,0,0,0,0,0,16.265,-11.887
4320,-0.274,-0.178,0.959,0.61,0.244,0.122,0,0,0,0,16.259,-11.832
4340,-0.276,-0.177,0.961,-0.427,-0.549,0.61,0,0,0,0,16.248,-11.788
4360,-0.276,-0.177,0.961,-0.427,-0.549,0.61,0,0,0,0,16.248,-11.788
4380,-0.276,-0.177,0.961,-0.427,-0.549,0.61,0,0,0,0,16.248,-11.788
4400,-0.276,-0.177,0.961,-0.427,-0.549,0.61,0,0,0,0,16.243,-11.782
4420,-0.278,-0.177,0.962,-0.793,-0.793,0.793,0,0,0,0,16.232,-11.777
4440,-0.273,-0.177,0.962,-0.671,-0.366,0.549,0,0,0,0,16.199,-11.766
4460,-0.266,-0.177,0.961,-1.281,-0.488,0,0,0,0,0,16.177,-11.771
4480,-0.279,-0.18,0.962,-2.197,-0.61,-0.61,0,0,0,0,16.16,-11.793
4500,-0.282,-0.181,0.963,0.732,0.061,0.488,0,0,0,0,16.149,-11.804
4520,-0.266,-0.177,0.962,1.647,0.854,0.854,0,0,0,0,16.155,-11.76
4540,-0.268,-0.175,0.959,-0.244,0.061,0.122,0,0,0,0,16.155,-11.727
4560,-0.273,-0.175,0.96,-1.77,-0.732,-0.366,0,0,0,0,16.149,-11.727
4580,-0.273,-0.175,0.96,-1.77,-0.732,-0.366,0,0,0,0,16.149,-11.727
4600,-0.283,-0.184,0.964,-1.22,-0.549,0,0,0,0,0,16.122,-11.755
4620,-0.274,-0.182,0.962,-0.976,-0.366,0.488,0,0,0,0,16.122,-11.755
4640,-0.272,-0.181,0.961,-0.854,-0.61,0.183,0,0,0,0,16.1,-11.76
4660,-0.269,-0.178,0.962,-1.647,-0.793,0.122,0,0,0,0,16.089,-11.766
4680,-0.278,-0.181,0.961,-0.671,0.244,-0.305,0,0,0,0,16.067,-11.782
4700,-0.278,-0.18,0.961,-0.122,0.244,0,0,0,0,0,16.067,-11.782
4720,-0.278,-0.182,0.962,-0.854,-0.366,-0.122,0,0,0,0,16.067,-11.777
4740,-0.266,-0.181,0.961,1.831,1.159,0.549,0,0,0,0,16.072,-11.733
4760,-0.266,-0.181,0.961,1.831,1.159,0.549,0,0,0,0,16.078,-11.711
4780,-0.266,-0.181,0.961,1.831,1.159,0.549,0,0,0,0,16.083,-11.694
4800,-0.273,-0.179,0.961,1.464,1.098,-0.183,0,0,0,0,16.1,-11.656
4820,-0.273,-0.179,0.961,1.464,1.098,-0.183,0,0,0,0,16.1,-11.656
4840,-0.28,-0.177,0.962,1.464,1.22,0.488,0,0,0,0,16.144,-11.568
4860,-0.283,-0.175,0.961,0.366,0.549,0.61,0,0,0,0,16.155,-11.552
4880,-0.271,-0.182,0.963,2.99,1.953,0.427,0,0,0,0,16.177,-11.491
4900,-0.271,-0.182,0.963,2.99,1.953,0.427,0,0,0,0,16.177,-11.491
4920,-0.271,-0.182,0.963,2.99,1.953,0.427,0,0,0,0,16.188,-11.475
4940,-0.271,-0.182,0.963,2.99,1.953,0.427,0,0,0,0,16.188,-11.475
4960,-0.272,-0.178,0.962,4.699,2.99,0.671,0,0,0,0,16.221,-11.403
4980,-0.277,-0.171,0.96,2.99,1.892,0.366,0,0,0,0,16.259,-11.332
5000,-0.286,-0.17,0.963,2.624,1.403,-0.122,0,0,0,0,16.325,-11.173
5020,-0.278,-0.17,0.963,0.671,0.976,0.366,0,0,0,0,16.369,-11.085
5040,-0.286,-0.168,0.962,0.854,0.854,0,0,0,0,0,16.391,-11.046
5060,-0.286,-0.168,0.962,0.854,0.854,0,0,0,0,0,16.402,-11.03
5080,-0.283,-0.169,0.962,1.281,0.488,0.061,0,0,0,0,16.408,-11.002
5100,-0.285,-0.168,0.961,1.037,0.305,0.183,0,0,0,0,16.413,-10.969
5120,-0.285,-0.167,0.963,-0.488,0.305,0.183,0,0,0,0,16.424,-10.936
5140,-0.284,-0.167,0.962,-0.061,0.244,0.61,0,0,0,0,16.43,-10.925
5160,-0.284,-0.167,0.962,-0.061,0.244,0.61,0,0,0,0,16.43,-10.92
5180,-0.278,-0.165,0.961,-0.793,-0.183,0,0,0,0,0,16.43,-10.92
5200,-0.284,-0.168,0.964,-0.061,0.549,-0.305,0,0,0,0,16.424,-10.92
5220,-0.292,-0.17,0.958,0.183,0.61,-0.427,0,0,0,0,16.474,-10.887
5240,-0.292,-0.17,0.958,0.183,0.61,-0.427,0,0,0,0,16.484,-10.881
5260,-0.286,-0.165,0.962,-2.136,0.427,0.488,0,0,0,0,16.495,-10.892
5280,-0.286,-0.165,0.962,-2.136,0.427,0.488,0,0,0,0,16.501,-10.903
5300,-0.286,-0.165,0.962,-2.136,0.427,0.488,0,0,0,0,16.501,-10.909
5320,-0.28,-0.166,0.963,1.159,2.807,-0.244,0,0,0,0,16.545,-10.887
5340,-0.289,-0.167,0.964,-0.244,3.051,-0.061,0,0,0,0,16.594,-10.865
5360,-0.289,-0.169,0.963,-0.244,3.906,-0.244,0,0,0,0,16.655,-10.859
5380,-0.289,-0.169,0.963,-0.244,3.906,-0.244,0,0,0,0,16.693,-10.859
5400,-0.291,-0.179,0.963,-0.061,4.577,0.061,0,0,0,0,16.732,-10.859
5420,-0.291,-0.179,0.963,-0.061,4.577,0.061,0,0,0,0,16.754,-10.865
5440,-0.291,-0.179,0.963,-0.061,4.577,0.061,0,0,0,0,16.798,-10.865
5460,-0.296,-0.182,0.965,0.61,5.737,2.319,0,0,0,0,16.918,-10.843
5480,-0.319,-0.161,0.955,1.831,7.507,5.737,0,0,0,0,17.237,-10.733
5500,-0.285,-0.17,0.96,-1.281,5.432,3.906,0,0,0,0,17.517,-10.684
5520,-0.255,-0.176,0.958,-2.014,6.408,4.089,0,0,0,0,17.6,-10.7
5540,-0.255,-0.176,0.958,-2.014,6.408,4.089,0,0,0,0,17.622,-10.706
5560,-0.322,-0.161,0.955,7.69,7.934,0.732,0,0,0,0,18.088,-10.431
5580,-0.28,-0.157,0.958,6.591,6.408,-1.037,0,0,0,0,18.242,-10.255
5600,-0.334,-0.158,0.959,7.324,7.568,-1.281,0,0,0,0,18.347,-10.156
5620,-0.328,-0.144,0.955,8.056,7.263,-1.647,0,0,0,0,18.599,-9.893
5640,-0.308,-0.138,0.944,6.713,5.187,-3.54,0,0,0,0,18.682,-9.772
5660,-0.36,-0.136,0.956,8.239,3.784,-3.051,0,0,0,0,18.726,-9.689
5680,-0.312,-0.143,0.967,3.051,3.295,-2.136,0,0,0,0,18.781,-9.596
5700,-0.326,-0.128,0.957,1.342,4.272,-5.981,0,0,0,0,18.847,-9.552
5720,-0.347,-0.13,0.946,2.136,2.746,-9.094,0,0,0,0,18.907,-9.552
5740,-0.302,-0.155,0.962,6.713,3.54,-13.061,0,0,0,0,18.918,-9.541
5760,-0.347,-0.175,0.961,5.615,5.859,-13.183,0,0,0,0,18.94,-9.503
5780,-0.347,-0.175,0.961,5.615,5.859,-13.183,0,0,0,0,19,-9.497
5800,-0.313,-0.166,0.967,16.113,10.559,-9.033,0,0,0,0,19.121,-9.316
5820,-0.335,-0.125,0.942,12.329,9.704,-6.958,0,0,0,0,19.291,-9.102
5840,-0.344,-0.093,0.95,1.647,-2.746,5.798,0,0,0,0,19.352,-8.948
5860,-0.335,-0.114,0.958,-1.342,-4.028,13.732,0,0,0,0,19.308,-8.789
5880,-0.312,-0.137,0.958,-0.732,-2.136,15.197,0,0,0,0,19.291,-8.717
5900,-0.312,-0.137,0.958,-0.732,-2.136,15.197,0,0,0,0,19.286,-8.668
5920,-0.312,-0.137,0.958,-0.732,-2.136,15.197,0,0,0,0,19.286,-8.668
5940,-0.326,-0.142,0.958,-16.906,-1.647,17.517,0,0,0,0,19.264,-9.025
5960,-0.34,-0.149,0.943,-21.606,-1.159,16.662,0,0,0,0,19.302,-9.387
5980,-0.331,-0.178,0.953,-12.39,-1.342,13.244,0,0,0,0,19.363,-9.838
6000,-0.296,-0.164,0.94,-10.925,-5.859,13,0,0,0,0,19.341,-9.909
6020,-0.344,-0.164,0.938,-8.239,-8.239,8.728,0,0,0,0,19.237,-10.025
6040,-0.337,-0.152,0.952,-7.141,-11.169,6.53,0,0,0,0,19,-10.151
6060,-0.374,-0.15,0.952,-7.69,-7.385,5.187,0,0,0,0,18.901,-10.217
6080,-0.39,-0.143,0.944,-5.187,-1.831,0.854,0,0,0,0,18.858,-10.283
6100,-0.365,-0.154,0.947,-5.249,-2.014,-1.037,0,0,0,0,18.858,-10.365
6120,-0.328,-0.173,0.952,-5.187,-4.943,-2.136,0,0,0,0,18.764,-10.524
6140,-0.312,-0.187,0.957,-2.746,-3.784,-1.525,0,0,0,0,18.693,-10.579
6160,-0.312,-0.187,0.957,-2.746,-3.784,-1.525,0,0,0,0,18.671,-10.596
6180,-0.314,-0.18,0.954,1.403,-0.549,0.305,0,0,0,0,18.638,-10.601
6200,-0.314,-0.18,0.954,1.403,-0.549,0.305,0,0,0,0,18.632,-10.59
6220,-0.2,-0.186,0.948,5.432,-2.38,1.831,0,0,0,0,18.566,-10.53
6240,-0.21,-0.171,0.967,12.573,-8.239,-3.173,0,0,0,0,18.143,-10.151
6260,-0.234,-0.146,0.968,6.835,-11.23,-6.896,0,0,0,0,17.781,-9.964
6280,-0.34,-0.158,0.966,7.446,-18.493,-6.408,0,0,0,0,17.171,-9.805
6300,-0.366,-0.156,0.979,6.774,-19.592,0.854,0,0,0,0,16.995,-9.728
6320,-0.397,-0.141,0.975,-0.427,-17.822,4.882,0,0,0,0,16.671,-9.596
6340,-0.397,-0.141,0.975,-0.427,-17.822,4.882,0,0,0,0,16.474,-9.558
6360,-0.245,-0.158,0.947,6.347,-23.071,-2.197,0,0,0,0,15.787,-9.431
6380,-0.345,-0.136,0.982,3.234,-18.615,-2.197,0,0,0,0,15.221,-9.277
6400,-0.269,-0.138,0.974,0.732,-15.502,-4.394,0,0,0,0,15.144,-9.272
6420,-0.269,-0.138,0.974,0.732,-15.502,-4.394,0,0,0,0,15.062,-9.266
6440,-0.33,-0.14,0.974,-2.319,-13.61,-7.69,0,0,0,0,14.661,-9.321
6460,-0.295,-0.15,0.97,2.929,-9.338,-5.615,0,0,0,0,14.617,-9.31
6480,-0.216,-0.156,0.979,-1.892,-15.258,-10.559,0,0,0,0,14.007,-9.283
6500,-0.216,-0.156,0.979,-1.892,-15.258,-10.559,0,0,0,0,14.007,-9.283
6520,-0.216,-0.156,0.979,-1.892,-15.258,-10.559,0,0,0,0,13.919,-9.299
6540,-0.21,-0.141,0.977,0.305,-26.245,-14.16,0,0,0,0,13.194,-9.437
6560,-0.245,-0.142,0.986,9.887,-7.629,-8.605,0,0,0,0,12.37,-9.244
6580,-0.245,-0.142,0.986,9.887,-7.629,-8.605,0,0,0,0,12.332,-9.201
6600,-0.245,-0.142,0.986,9.887,-7.629,-8.605,0,0,0,0,12.293,-9.157
6620,-0.245,-0.142,0.986,9.887,-7.629,-8.605,0,0,0,0,12.293,-9.157
6640,-0.162,-0.154,0.984,-6.408,-15.502,-6.042,0,0,0,0,11.92,-9.234
6660,-0.224,-0.139,0.982,21.362,-14.526,-9.826,0,0,0,0,11.574,-9.234
6680,-0.254,-0.057,1.001,2.197,-27.893,-36.804,0,0,0,0,9.645,-8.508
6700,0.06,-0.115,0.998,16.052,-37.719,-64.208,0,0,0,0,8.953,-8.442
6720,-0.243,-0.121,1.031,-8.3,-46.63,-56.823,0,0,0,0,7.899,-8.508
6740,-0.243,-0.121,1.031,-8.3,-46.63,-56.823,0,0,0,0,7.899,-8.508
6760,-0.082,-0.198,0.97,34.729,-42.846,-44.433,0,0,0,0,7.135,-8.508
6780,-0.31,-0.159,1.027,6.286,-50.17,-28.625,0,0,0,0,5.916,-8.058
6800,-0.202,-0.159,1.002,-11.962,-31.311,-21.85,0,0,0,0,4.987,-8.234
6820,-0.202,-0.159,1.002,-11.962,-31.311,-21.85,0,0,0,0,4.987,-8.234
6840,-0.202,-0.159,1.002,-11.962,-31.311,-21.85,0,0,0,0,4.987,-8.234
6860,-0.202,-0.159,1.002,-11.962,-31.311,-21.85,0,0,0,0,4.987,-8.234
6880,-0.029,-0.15,1.003,12.207,-19.348,-9.948,0,0,0,0,4.724,-8.25
6900,-0.029,-0.15,1.003,12.207,-19.348,-9.948,0,0,0,0,4.504,-8.135
6920,-0.029,-0.15,1.003,12.207,-19.348,-9.948,0,0,0,0,4.504,-8.135
6940,-0.203,-0.17,1.02,9.887,-18.493,-2.319,0,0,0,0,4.246,-7.992
6960,-0.203,-0.17,1.02,9.887,-18.493,-2.319,0,0,0,0,4.103,-7.899
6980,-0.083,-0.134,1.03,-5.126,0.61,7.263,0,0,0,0,5.02,-7.239
7000,-0.126,-0.101,1.01,-7.08,7.019,6.53,0,0,0,0,5.35,-7.443
7020,-0.126,-0.101,1.01,-7.08,7.019,6.53,0,0,0,0,5.35,-7.443
7040,-0.126,-0.101,1.01,-7.08,7.019,6.53,0,0,0,0,5.35,-7.443
7060,-0.166,-0.101,1.013,10.864,6.896,1.953,0,0,0,0,5.526,-7.141
7080,-0.166,-0.101,1.013,10.864,6.896,1.953,0,0,0,0,5.526,-7.141
7100,-0.166,-0.101,1.013,10.864,6.896,1.953,0,0,0,0,5.57,-7.08
7120,-0.166,-0.101,1.013,10.864,6.896,1.953,0,0,0,0,5.57,-7.08
7140,-0.166,-0.101,1.013,10.864,6.896,1.953,0,0,0,0,5.57,-7.08
7160,-0.166,-0.101,1.013,10.864,6.896,1.953,0,0,0,0,5.57,-7.08
7180,-0.166,-0.101,1.013,10.864,6.896,1.953,0,0,0,0,5.57,-7.08
7200,-0.166,-0.101,1.013,10.864,6.896,1.953,0,0,0,0,5.57,-7.08
7220,-0.166,-0.101,1.013,10.864,6.896,1.953,0,0,0,0,5.57,-7.08
7240,-0.166,-0.101,1.013,10.864,6.896,1.953,0,0,0,0,5.663,-6.965
7260,-0.084,-0.132,1,3.54,-0.549,-8.605,0,0,0,0,5.652,-7.267
7280,-0.091,-0.13,1.004,-6.347,0.732,1.098,0,0,0,0,5.059,-8.278
7300,-0.095,-0.132,1.009,-13.61,-2.136,0,0,0,0,0,5.042,-8.558
7320,-0.078,-0.199,0.98,13.977,-0.366,3.845,0,0,0,0,5.031,-8.497
7340,-0.125,-0.101,1.019,0.793,-0.61,2.99,0,0,0,0,5.037,-8.36
7360,-0.125,-0.101,1.019,0.793,-0.61,2.99,0,0,0,0,5.053,-8.322
7380,-0.095,-0.143,1.005,4.272,0.854,3.295,0,0,0,0,5.075,-8.256
7400,-0.104,-0.126,1.008,5.859,1.953,4.638,0,0,0,0,5.136,-8.096
7420,-0.104,-0.126,1.008,5.859,1.953,4.638,0,0,0,0,5.136,-8.096
7440,-0.086,-0.125,1.005,4.821,2.441,3.295,0,0,0,0,5.223,-7.915
7460,-0.098,-0.125,1.006,3.967,1.953,2.197,0,0,0,0,5.262,-7.838
7480,-0.098,-0.125,1.006,3.967,1.953,2.197,0,0,0,0,5.284,-7.794
7500,-0.099,-0.116,1.006,-2.502,0.244,-1.037,0,0,0,0,5.377,-7.63
7520,-0.098,-0.123,1.007,-5.92,-1.098,-2.319,0,0,0,0,5.372,-7.717
7540,-0.098,-0.123,1.007,-5.92,-1.098,-2.319,0,0,0,0,5.366,-7.745
7560,-0.101,-0.135,1.007,-4.211,-1.098,-1.525,0,0,0,0,5.339,-7.86
7580,-0.101,-0.124,1.007,-3.723,-1.586,1.159,0,0,0,0,5.322,-7.904
7600,-0.1,-0.127,1.006,-6.469,-2.319,0.671,0,0,0,0,5.284,-8.009
7620,-0.096,-0.131,1.006,-5.981,-2.258,-0.427,0,0,0,0,5.24,-8.124
7640,-0.096,-0.131,1.006,-5.981,-2.258,-0.427,0,0,0,0,5.229,-8.151
7660,-0.096,-0.135,1.004,-4.577,-2.258,0.305,0,0,0,0,5.213,-8.201
7680,-0.096,-0.135,1.004,-4.577,-2.258,0.305,0,0,0,0,5.191,-8.245
7700,-0.073,-0.127,1.007,-4.455,-2.014,-1.831,0,0,0,0,5.163,-8.283
7720,-0.107,-0.14,1.005,-5.92,-1.77,-0.427,0,0,0,0,5.114,-8.371
7740,-0.103,-0.137,1.002,-6.896,-0.915,-1.159,0,0,0,0,5.092,-8.519
7760,-0.103,-0.137,1.002,-6.896,-0.915,-1.159,0,0,0,0,5.092,-8.519
7780,-0.103,-0.137,1.002,-6.896,-0.915,-1.159,0,0,0,0,5.086,-8.585
7800,-0.083,-0.139,1.004,-2.258,0.793,-0.427,0,0,0,0,5.086,-8.723
7820,-0.082,-0.146,1.006,-1.953,0.732,-1.159,0,0,0,0,5.092,-8.745
7840,-0.102,-0.143,1.003,-3.295,-0.549,-1.586,0,0,0,0,5.086,-8.822
7860,-0.109,-0.142,1.002,-5.004,-1.037,-1.892,0,0,0,0,5.081,-8.843
7880,-0.11,-0.148,1.008,-4.089,-1.159,-0.793,0,0,0,0,5.07,-8.931
7900,-0.106,-0.145,1.006,-1.22,-1.342,-0.183,0,0,0,0,5.048,-9.003
7920,-0.094,-0.158,1.004,-2.197,-2.685,-0.122,0,0,0,0,4.943,-9.058
7940,-0.092,-0.155,1.007,5.249,0.976,5.249,0,0,0,0,4.932,-9.03
7960,-0.092,-0.155,1.007,5.249,0.976,5.249,0,0,0,0,4.938,-9.003
7980,-0.092,-0.155,1.007,5.249,0.976,5.249,0,0,0,0,4.96,-8.942
8000,-0.11,-0.131,0.998,1.098,-1.342,1.647,0,0,0,0,4.938,-8.833
8020,-0.113,-0.131,1.009,-10.192,-1.708,-2.99,0,0,0,0,4.949,-8.931
8040,-0.107,-0.136,1.016,-7.751,1.037,-1.403,0,0,0,0,4.938,-9.107
8060,-0.107,-0.136,1.016,-7.751,1.037,-1.403,0,0,0,0,4.938,-9.107
8080,-0.107,-0.136,1.016,-7.751,1.037,-1.403,0,0,0,0,4.938,-9.107
8100,-0.107,-0.136,1.016,-7.751,1.037,-1.403,0,0,0,0,4.949,-9.179
8120,-0.088,-0.147,1.008,-8.483,1.708,-0.915,0,0,0,0,4.976,-9.294
8140,-0.088,-0.148,1.003,-10.253,1.098,-1.892,0,0,0,0,4.993,-9.42
8160,-0.109,-0.184,1,-9.216,-3.54,-5.615,0,0,0,0,4.91,-9.937
8180,-0.109,-0.184,1,-9.216,-3.54,-5.615,0,0,0,0,4.91,-9.937
8200,-0.102,-0.182,1.001,3.906,-1.281,1.464,0,0,0,0,4.833,-10.025
8220,-0.102,-0.182,1.001,3.906,-1.281,1.464,0,0,0,0,4.828,-9.986
8240,-0.088,-0.162,1,5.249,-1.22,4.455,0,0,0,0,4.812,-9.766
8260,-0.088,-0.162,1,5.249,-1.22,4.455,0,0,0,0,4.812,-9.766
8280,-0.088,-0.147,1.002,3.234,-1.22,2.685,0,0,0,0,4.806,-9.607
8300,-0.081,-0.149,1.006,1.037,-0.915,1.403,0,0,0,0,4.79,-9.525
8320,-0.081,-0.149,1.006,1.037,-0.915,1.403,0,0,0,0,4.784,-9.514
8340,-0.087,-0.159,1,-1.77,1.22,-1.953,0,0,0,0,4.768,-9.536
8360,-0.087,-0.159,1,-1.77,1.22,-1.953,0,0,0,0,4.773,-9.547
8380,-0.087,-0.159,1,-1.77,1.22,-1.953,0,0,0,0,4.773,-9.547
8400,-0.089,-0.166,1,-1.77,1.586,-1.953,0,0,0,0,4.784,-9.563
8420,-0.098,-0.161,1.002,-0.427,0.549,-0.305,0,0,0,0,4.839,-9.607
8440,-0.098,-0.157,1.003,-0.427,0.732,0,0,0,0,0,4.855,-9.607
8460,-0.092,-0.16,1.004,0.61,0.366,0.427,0,0,0,0,4.894,-9.591
8480,-0.092,-0.153,1.002,-0.549,-0.427,0.976,0,0,0,0,4.894,-9.585
8500,-0.102,-0.155,1.002,-1.892,-1.281,-0.122,0,0,0,0,4.888,-9.596
8520,-0.074,-0.158,1.001,-2.014,-2.929,3.112,0,0,0,0,4.822,-9.64
8540,-0.109,-0.167,1,-1.586,-2.502,3.479,0,0,0,0,4.773,-9.673
8560,-0.109,-0.167,1,-1.586,-2.502,3.479,0,0,0,0,4.773,-9.673
8580,-0.087,-0.151,1.005,-1.708,-2.014,1.403,0,0,0,0,4.751,-9.684
8600,-0.087,-0.151,1.005,-1.708,-2.014,1.403,0,0,0,0,4.74,-9.689
8620,-0.086,-0.163,1,-3.54,-2.685,0,0,0,0,0,4.674,-9.761
8640,-0.091,-0.161,1.005,-2.319,-1.586,-0.427,0,0,0,0,4.608,-9.838
8660,-0.091,-0.159,1.004,-5.126,-2.746,-0.122,0,0,0,0,4.586,-9.887
8680,-0.086,-0.169,1,-3.051,-2.38,0.122,0,0,0,0,4.553,-9.948
8700,-0.089,-0.163,1.001,-2.624,-2.38,0.061,0,0,0,0,4.509,-9.997
8720,-0.089,-0.163,1.001,-2.624,-2.38,0.061,0,0,0,0,4.498,-10.008
8740,-0.087,-0.166,1,-2.685,-1.708,-0.244,0,0,0,0,4.465,-10.052
8760,-0.079,-0.174,1.004,-1.22,-1.159,-1.281,0,0,0,0,4.438,-10.09
8780,-0.079,-0.174,1.004,-1.22,-1.159,-1.281,0,0,0,0,4.421,-10.101
8800,-0.086,-0.17,1.005,-0.061,-0.61,-0.671,0,0,0,0,4.421,-10.096
8820,-0.087,-0.166,1,1.22,0.732,-0.671,0,0,0,0,4.427,-10.079
8840,-0.082,-0.171,1.003,0.976,0.427,-0.549,0,0,0,0,4.449,-10.03
8860,-0.086,-0.167,1.001,1.159,0.671,-0.61,0,0,0,0,4.46,-10.008
8880,-0.086,-0.167,1.001,1.159,0.671,-0.61,0,0,0,0,4.46,-10.008
8900,-0.086,-0.167,1.001,1.159,0.671,-0.61,0,0,0,0,4.465,-10.003
8920,-0.089,-0.163,1.003,1.403,0.244,-1.159,0,0,0,0,4.482,-9.937
8940,-0.091,-0.163,1.004,1.098,0.122,-1.22,0,0,0,0,4.493,-9.893
8960,-0.085,-0.163,1.002,2.99,0.854,-1.281,0,0,0,0,4.526,-9.783
8980,-0.091,-0.158,1.005,4.638,1.525,-2.38,0,0,0,0,4.559,-9.667
9000,-0.1,-0.154,1.006,3.295,2.075,-2.38,0,0,0,0,4.603,-9.596
9020,-0.092,-0.153,1,4.699,4.516,-4.211,0,0,0,0,4.685,-9.503
9040,-0.101,-0.149,1.004,10.375,8.544,-7.934,0,0,0,0,4.839,-9.299
9060,-0.09,-0.156,1.006,13.732,10.681,-8.605,0,0,0,0,5.026,-9.036
9080,-0.083,-0.153,1.008,9.582,7.629,-6.958,0,0,0,0,5.053,-8.992
9100,-0.083,-0.153,1.008,9.582,7.629,-6.958,0,0,0,0,5.119,-8.898
9120,-0.113,-0.137,1.011,3.295,5.004,-9.216,0,0,0,0,5.213,-8.811
9140,-0.095,-0.154,1.005,-4.272,0.366,-4.333,0,0,0,0,5.317,-8.975
9160,-0.095,-0.154,1.005,-4.272,0.366,-4.333,0,0,0,0,5.311,-9.019
9180,-0.089,-0.16,1.002,-0.305,0.549,-3.173,0,0,0,0,5.311,-9.03
9200,-0.101,-0.156,1.008,6.591,1.831,1.098,0,0,0,0,5.344,-8.931
9220,-0.104,-0.144,1.006,0.976,-0.549,4.15,0,0,0,0,5.388,-8.767
9240,-0.1,-0.146,1.005,-0.915,-1.342,2.746,0,0,0,0,5.383,-8.75
9260,-0.1,-0.146,1.005,-0.915,-1.342,2.746,0,0,0,0,5.377,-8.75
9280,-0.1,-0.146,1.005,-0.915,-1.342,2.746,0,0,0,0,5.372,-8.756
9300,-0.104,-0.145,1.003,-1.892,-1.037,0.61,0,0,0,0,5.366,-8.767
9320,-0.106,-0.147,1.007,-1.647,-0.976,0.305,0,0,0,0,5.355,-8.8
9340,-0.106,-0.147,1.007,-1.647,-0.976,0.305,0,0,0,0,5.35,-8.811
9360,-0.095,-0.148,1.008,-6.896,-5.249,1.708,0,0,0,0,5.245,-8.937
9380,-0.106,-0.146,1.006,-10.559,-6.408,3.295,0,0,0,0,5.147,-9.08
9400,-0.106,-0.146,1.006,-10.559,-6.408,3.295,0,0,0,0,5.092,-9.179
9420,-0.08,-0.109,1.024,-10.925,-4.638,8.666,0,0,0,0,5.031,-9.31
9440,-0.06,-0.332,1.154,-67.687,-50.903,9.704,0,0,0,0,4.367,-10.7
9460,0.366,-0.726,1.421,-293.273,-167.846,-33.325,0,0,0,0,-0.142,-16.655
9480,0.366,-0.726,1.421,-293.273,-167.846,-33.325,0,0,0,0,-1.884,-19.671
9500,0.498,-0.839,1.184,-25.024,-94.604,21.484,0,0,0,0,-2.73,-20.072
9520,0.498,-0.839,1.184,-25.024,-94.604,21.484,0,0,0,0,-3.57,-20.473
9540,0.555,-0.555,1.164,110.839,-60.546,46.691,0,0,0,0,-5.004,-18.792
9560,0.367,-0.381,1.071,152.709,-49.56,57.434,0,0,0,0,-6.223,-15.034
9580,0.19,-0.327,0.967,188.537,-35.156,59.692,0,0,0,0,-6.322,-14.144
9600,0.19,-0.327,0.967,188.537,-35.156,59.692,0,0,0,0,-6.322,-14.144
9620,0.172,-0.353,0.938,180.297,-72.448,90.576,0,0,0,0,-7.767,-8.283
9640,0.21,-0.276,0.78,108.642,-155.517,139.221,0,0,0,0,-10.491,-6.773
9660,-0.131,0.281,-0.086,-127.136,-261.291,45.288,0,0,0,0,-19.368,-8.767
9680,-0.195,0.309,-0.029,-168.64,-274.475,60.363,0,0,0,0,-23.455,-11.48
9700,-0.195,0.309,-0.029,-168.64,-274.475,60.363,0,0,0,0,-24.494,-12.398
9720,0.204,0.363,0.192,-189.27,-314.147,13.793,0,0,0,0,-33.766,-20.747
9740,0.062,0.408,0.225,-189.453,-316.406,-5.31,0,0,0,0,-39.017,-25.576
9760,0.015,0.427,0.209,-178.649,-307.434,1.586,0,0,0,0,-42.769,-29.481
9780,0.015,0.427,0.209,-178.649,-307.434,1.586,0,0,0,0,-43.939,-30.838
9800,0.015,0.427,0.209,-178.649,-307.434,1.586,0,0,0,0,-45.098,-32.25
9820,0.015,0.427,0.209,-178.649,-307.434,1.586,0,0,0,0,-45.098,-32.25
9840,0.335,0.302,0.297,-153.869,-302.063,-44.921,0,0,0,0,-50.075,-37.71
9860,0.686,-0.403,0.276,-9.704,-258.605,-54.87,0,0,0,0,-58.447,-46.735
9880,1.667,-1.311,0.307,52.185,-317.504,-21.545,0,0,0,0,-67.12,-66.346
9900,1.644,-1.418,0.3,78.857,-308.715,35.217,0,0,0,0,-67.955,-76.025
9920,1.79,-0.693,0.229,100.402,-139.282,-110.595,0,0,0,0,-71.531,-92.587
9940,1.79,-0.693,0.229,100.402,-139.282,-110.595,0,0,0,0,-72.531,-95.949
9960,1.3,-0.374,0.108,-55.908,72.998,0,0,0,0,0,-73.355,-94.685
9980,1.3,-0.374,0.108,-55.908,72.998,0,0,0,0,0,-73.383,-93.691
10000,1.31,-0.508,0.009,-95.825,107.971,52.856,0,0,0,0,-73.163,-90.335
10020,1.31,-0.508,0.009,-95.825,107.971,52.856,0,0,0,0,-72.295,-86.594
10040,1.269,-0.568,0.034,-57.312,118.713,111.206,0,0,0,0,-71.054,-83.836
10060,1.205,-0.497,0.037,-14.648,94.543,164.733,0,0,0,0,-66.187,-78.656
10080,0.921,-0.401,-0.04,23.803,17.517,17.333,0,0,0,0,-63.176,-76.651
10100,0.783,-0.326,-0.032,40.893,-0.732,-22.46,0,0,0,0,-63.5,-76.08
10120,0.806,-0.417,-0.083,44.067,-19.836,-21.972,0,0,0,0,-63.819,-75.849
10140,0.809,-0.383,-0.083,53.71,-34.362,-23.132,0,0,0,0,-64.302,-75.964
10160,0.815,-0.371,-0.094,63.903,-44.25,-43.518,0,0,0,0,-65.05,-76.316
10180,0.825,-0.254,-0.009,39.001,-52.185,-46.813,0,0,0,0,-66.395,-77.475
10200,0.9,-0.286,-0.012,31.921,-58.349,-27.77,0,0,0,0,-67.082,-78.804
10220,0.999,-0.383,0.009,30.944,-45.043,2.807,0,0,0,0,-67.571,-81.491
10240,1.054,-0.466,0.044,32.592,-30.761,7.69,0,0,0,0,-67.527,-81.936
10260,1.042,-0.486,0.019,23.193,-23.498,6.286,0,0,0,0,-67.406,-82.93
10280,0.918,-0.378,-0.031,18.066,6.347,15.014,0,0,0,0,-67.241,-83.276
10300,0.874,-0.317,-0.054,18.615,15.991,5.249,0,0,0,0,-66.956,-82.721
10320,0.874,-0.317,-0.054,18.615,15.991,5.249,0,0,0,0,-66.818,-82.051
10340,0.871,-0.343,-0.057,19.287,13.305,-3.784,0,0,0,0,-66.818,-81.842
10360,0.872,-0.363,-0.054,12.023,15.991,-3.967,0,0,0,0,-66.796,-80.787
10380,0.872,-0.447,-0.14,3.784,14.282,3.051,0,0,0,0,-66.648,-79.403
10400,0.872,-0.447,-0.14,3.784,14.282,3.051,0,0,0,0,-66.648,-79.403
10420,0.872,-0.447,-0.14,3.784,14.282,3.051,0,0,0,0,-66.522,-79.151
10440,0.388,-0.516,-0.143,15.197,-45.593,60.668,0,0,0,0,-65.39,-80.661
10460,0.836,-0.467,-0.131,31.127,-11.352,13,0,0,0,0,-63.989,-82.391
10480,0.871,-0.397,-0.079,28.686,-7.812,-18.005,0,0,0,0,-64.22,-82.243
10500,0.83,-0.416,-0.024,17.944,-6.286,-26.428,0,0,0,0,-64.423,-82.155
10520,0.83,-0.416,-0.024,17.944,-6.286,-26.428,0,0,0,0,-64.55,-82.122
10540,0.818,-0.397,0.031,-8.85,-9.46,-9.826,0,0,0,0,-65.203,-82.287
10560,0.867,-0.461,0.022,-8.361,-12.878,-22.399,0,0,0,0,-65.709,-83.633
10580,0.867,-0.461,0.022,-8.361,-12.878,-22.399,0,0,0,0,-66.022,-84.116
10600,0.853,-0.45,0.024,-3.601,-6.408,-13.244,0,0,0,0,-66.082,-84.193
10620,0.853,-0.45,0.024,-3.601,-6.408,-13.244,0,0,0,0,-66.137,-84.27
10640,0.897,-0.447,0.04,20.629,-21.972,-4.333,0,0,0,0,-66.275,-84.561
10660,0.897,-0.447,0.04,20.629,-21.972,-4.333,0,0,0,0,-66.275,-84.561
10680,0.897,-0.447,0.04,20.629,-21.972,-4.333,0,0,0,0,-66.275,-84.561
10700,0.903,-0.367,-0.021,10.437,-38.391,-4.638,0,0,0,0,-66.961,-88.659
10720,0.915,-0.349,-0.038,8.239,-31.311,-3.234,0,0,0,0,-67.12,-90.807
10740,0.97,-0.421,-0.063,-2.868,9.094,-21.972,0,0,0,0,-67.719,-91.087
10760,0.907,-0.428,-0.049,-6.408,17.333,-16.601,0,0,0,0,-67.895,-90.845
10780,0.837,-0.431,-0.048,-11.596,7.629,-5.737,0,0,0,0,-68.142,-90.219
10800,0.812,-0.432,-0.078,-14.77,-10.742,-4.699,0,0,0,0,-68.153,-91.043
10820,0.829,-0.436,-0.117,-9.948,-25.817,-6.042,0,0,0,0,-68.153,-91.428
10840,0.829,-0.436,-0.117,-9.948,-25.817,-6.042,0,0,0,0,-68.153,-91.428
10860,0.857,-0.43,-0.123,-2.929,-30.7,-0.915,0,0,0,0,-68.098,-93.389
10880,0.882,-0.428,-0.043,20.996,-29.846,-2.197,0,0,0,0,-67.708,-96.69
10900,0.882,-0.428,-0.043,20.996,-29.846,-2.197,0,0,0,0,-67.653,-97.443
10920,0.854,-0.427,-0.047,-2.624,-29.602,-8.605,0,0,0,0,-67.686,-98.558
10940,0.79,-0.448,-0.081,-4.211,-34.912,-1.159,0,0,0,0,-67.51,-100.607
10960,0.812,-0.439,-0.106,3.967,-48.095,11.23,0,0,0,0,-67.148,-102.128
10980,0.925,-0.442,-0.123,3.051,-52.001,13.488,0,0,0,0,-66.478,-104.765
11000,0.994,-0.459,-0.142,-4.821,-44.86,2.624,0,0,0,0,-66.236,-106.298
11020,1.016,-0.467,-0.17,1.464,-26.184,-3.417,0,0,0,0,-66.126,-107.094
11040,1.016,-0.467,-0.17,1.464,-26.184,-3.417,0,0,0,0,-66.126,-107.094
11060,0.892,-0.47,-0.18,14.404,-26.123,35.583,0,0,0,0,-64.89,-108.457
11080,0.939,-0.431,-0.195,8.666,-28.625,41.931,0,0,0,0,-64.401,-108.698
11100,0.981,-0.381,-0.219,-10.559,-18.859,37.353,0,0,0,0,-63.72,-109.044
11120,0.981,-0.381,-0.219,-10.559,-18.859,37.353,0,0,0,0,-63.336,-109.264
11140,0.87,-0.307,-0.379,-73.913,-9.338,15.136,0,0,0,0,-62.501,-110.934
11160,0.845,-0.417,-0.533,-76.599,-18.432,-3.784,0,0,0,0,-62.188,-113.373
11180,0.877,-0.555,-0.578,0.488,-37.17,30.273,0,0,0,0,-61.056,-115.9
11200,1.004,-0.495,-0.477,14.953,-31.677,25.329,0,0,0,0,-60.034,-116.477
11220,1.004,-0.495,-0.477,14.953,-31.677,25.329,0,0,0,0,-59.392,-116.718
11240,1.012,-0.48,-0.375,4.821,-23.254,10.07,0,0,0,0,-59.166,-116.965
11260,0.917,-0.458,-0.331,-13.854,-21.118,4.028,0,0,0,0,-58.798,-117.669
11280,0.917,-0.458,-0.331,-13.854,-21.118,4.028,0,0,0,0,-58.666,-118.13
11300,0.85,-0.406,-0.335,-16.052,-26.367,1.464,0,0,0,0,-58.562,-118.663
11320,0.836,-0.419,-0.368,-21.911,-9.948,-20.019,0,0,0,0,-58.485,-119.509
11340,0.836,-0.419,-0.368,-21.911,-9.948,-20.019,0,0,0,0,-58.535,-119.789
11360,0.836,-0.419,-0.368,-21.911,-9.948,-20.019,0,0,0,0,-58.535,-119.789
11380,0.836,-0.419,-0.368,-21.911,-9.948,-20.019,0,0,0,0,-58.535,-119.789
11400,0.867,-0.574,-0.464,-19.653,6.164,-42.968,0,0,0,0,-58.798,-120.596
11420,0.917,-0.615,-0.504,12.573,1.403,-45.654,0,0,0,0,-59.798,-121.673
11440,0.856,-0.539,-0.433,40.039,2.258,-69.152,0,0,0,0,-60.496,-122.003
11460,1.21,-0.575,-0.385,68.237,20.507,-28.808,0,0,0,0,-66.258,-121.475
11480,1.072,-0.472,-0.25,47.241,23.62,5.981,0,0,0,0,-66.934,-118.992
11500,1.056,-0.315,-0.111,27.099,26.245,44.494,0,0,0,0,-66.588,-115.933
11520,1.056,-0.315,-0.111,27.099,26.245,44.494,0,0,0,0,-66.456,-115.268
11540,0.921,-0.309,-0.055,-3.662,53.222,87.28,0,0,0,0,-65.286,-111.143
11560,0.921,-0.309,-0.055,-3.662,53.222,87.28,0,0,0,0,-64.984,-110.247
11580,0.921,-0.309,-0.055,-3.662,53.222,87.28,0,0,0,0,-64.984,-110.247
11600,0.9,-0.302,-0.014,-3.662,59.326,86.364,0,0,0,0,-63.105,-105.067
11620,0.857,-0.359,-0.026,-2.746,63.11,80.2,0,0,0,0,-62.501,-103.447
11640,0.749,-0.444,-0.003,-6.408,78.857,39.367,0,0,0,0,-60.485,-96.657
11660,0.798,-0.529,-0.01,-9.399,76.538,22.949,0,0,0,0,-59.952,-93.372
11680,0.703,-0.48,-0.017,-2.746,61.157,20.385,0,0,0,0,-59.337,-90.219
11700,0.659,-0.439,-0.017,6.53,60.729,16.723,0,0,0,0,-58.908,-88.187
11720,0.659,-0.439,-0.017,6.53,60.729,16.723,0,0,0,0,-58.705,-87.16
11740,0.629,-0.425,0.01,12.756,68.115,5.004,0,0,0,0,-58.595,-85.935
11760,0.629,-0.425,0.01,12.756,68.115,5.004,0,0,0,0,-58.595,-85.935
11780,0.629,-0.425,0.01,12.756,68.115,5.004,0,0,0,0,-58.595,-85.935
11800,0.675,-0.439,0.184,-11.352,56.396,19.226,0,0,0,0,-56.986,-76.47
11820,0.715,-0.444,0.2,-6.286,52.307,25.329,0,0,0,0,-56.436,-75.443
11840,0.719,-0.401,0.231,-1.159,61.889,16.052,0,0,0,0,-55.887,-74.344
11860,0.719,-0.401,0.231,-1.159,61.889,16.052,0,0,0,0,-55.728,-73.905
11880,0.685,-0.356,0.269,3.356,67.077,11.962,0,0,0,0,-54.909,-71.521
11900,0.684,-0.315,0.301,7.019,68.908,7.08,0,0,0,0,-54.437,-69.933
11920,0.72,-0.326,0.323,9.643,67.565,4.15,0,0,0,0,-53.833,-67.791
11940,0.76,-0.404,0.325,2.38,71.35,3.54,0,0,0,0,-53.371,-66.247
11960,0.795,-0.459,0.325,-9.887,78.674,6.652,0,0,0,0,-52.69,-64.385
11980,0.795,-0.459,0.325,-9.887,78.674,6.652,0,0,0,0,-52.487,-63.962
12000,0.795,-0.546,0.21,-38.33,71.594,41.625,0,0,0,0,-49.482,-61.891
12020,0.714,-0.516,0.173,-36.437,67.199,38.513,0,0,0,0,-48.834,-61.847
12040,0.714,-0.516,0.173,-36.437,67.199,38.513,0,0,0,0,-48.51,-61.831
12060,0.628,-0.545,0.177,-24.475,57.312,23.62,0,0,0,0,-47.933,-61.748
12080,0.613,-0.56,0.292,-3.051,-3.234,5.554,0,0,0,0,-46.472,-61.336
12100,0.613,-0.56,0.292,-3.051,-3.234,5.554,0,0,0,0,-46.428,-61.424
12120,0.565,-0.577,0.335,-4.028,-6.286,14.77,0,0,0,0,-46.362,-61.501
12140,0.565,-0.577,0.335,-4.028,-6.286,14.77,0,0,0,0,-46.159,-61.732
12160,0.544,-0.65,0.486,23.498,9.033,24.536,0,0,0,0,-44.593,-61.314
12180,0.52,-0.666,0.57,44.616,11.84,25.939,0,0,0,0,-44.225,-60.814
12200,0.494,-0.733,0.6,60.974,12.756,21.789,0,0,0,0,-43.516,-59.639
12220,0.516,-0.831,0.581,65.673,1.525,13.671,0,0,0,0,-42.951,-58.331
12240,0.548,-0.799,0.594,54.26,-14.892,3.234,0,0,0,0,-42.692,-57.03
12260,0.628,-0.767,0.524,46.997,-26.428,0.61,0,0,0,0,-42.769,-56.53
12280,0.824,-0.742,0.377,55.908,-27.526,9.582,0,0,0,0,-42.89,-56.129
12300,1.022,-0.733,0.256,51.33,-9.094,-0.305,0,0,0,0,-43.033,-55.42
12320,1.018,-0.676,0.201,36.071,15.38,-6.713,0,0,0,0,-42.994,-54.706
12340,0.983,-0.539,0.188,23.376,32.226,-1.098,0,0,0,0,-42.714,-53.997
12360,0.965,-0.368,0.202,5.493,33.691,12.695,0,0,0,0,-42.368,-53.464
12380,0.951,-0.251,0.212,-1.953,32.104,33.996,0,0,0,0,-41.511,-52.569
12400,0.916,-0.152,0.198,-17.7,23.254,29.663,0,0,0,0,-40.896,-52.267
12420,0.916,-0.152,0.198,-17.7,23.254,29.663,0,0,0,0,-40.896,-52.267
12440,0.916,-0.152,0.198,-17.7,23.254,29.663,0,0,0,0,-40.896,-52.267
12460,0.916,-0.152,0.198,-17.7,23.254,29.663,0,0,0,0,-40.896,-52.267
12480,0.916,-0.152,0.198,-17.7,23.254,29.663,0,0,0,0,-40.896,-52.267
12500,0.893,-0.152,0.184,-23.071,14.343,14.831,0,0,0,0,-40.105,-52.036
12520,0.893,-0.152,0.184,-23.071,14.343,14.831,0,0,0,0,-40.105,-52.036
12540,0.893,-0.152,0.184,-23.071,14.343,14.831,0,0,0,0,-40.105,-52.036
12560,0.92,-0.233,0.211,-10.803,9.094,-20.385,0,0,0,0,-40.347,-51.058
12580,0.733,-0.382,0.411,-5.615,45.654,-64.025,0,0,0,0,-41.412,-47.142
12600,0.651,-0.438,0.587,-7.69,22.705,-25.451,0,0,0,0,-41.989,-43.923
12620,0.658,-0.448,0.614,-11.84,25.695,-26.062,0,0,0,0,-41.962,-43.544
12640,0.639,-0.445,0.638,-15.93,32.287,-31.616,0,0,0,0,-41.907,-43.126
12660,0.639,-0.445,0.638,-15.93,32.287,-31.616,0,0,0,0,-41.89,-42.978
12680,0.621,-0.439,0.647,-24.108,46.936,-24.169,0,0,0,0,-41.555,-42.138
12700,0.616,-0.41,0.663,-28.137,53.1,-16.723,0,0,0,0,-40.929,-41.594
12720,0.603,-0.387,0.679,-34.118,58.288,-11.718,0,0,0,0,-40.039,-41.22
12740,0.602,-0.375,0.683,-37.78,62.072,-10.192,0,0,0,0,-39.633,-41.11
12760,0.602,-0.375,0.683,-37.78,62.072,-10.192,0,0,0,0,-39.001,-40.979
12780,0.602,-0.375,0.683,-37.78,62.072,-10.192,0,0,0,0,-39.001,-40.979
12800,0.607,-0.395,0.693,-38.391,62.622,-7.812,0,0,0,0,-38.562,-40.918
12820,0.607,-0.395,0.693,-38.391,62.622,-7.812,0,0,0,0,-38.562,-40.918
12840,0.643,-0.43,0.687,-36.682,59.814,-5.187,0,0,0,0,-37.49,-40.836
12860,0.659,-0.451,0.672,-30.395,53.405,1.342,0,0,0,0,-36.875,-40.836
12880,0.739,-0.547,0.615,-9.399,20.751,3.845,0,0,0,0,-34.557,-41.022
12900,0.802,-0.597,0.611,0.549,12.756,1.708,0,0,0,0,-34.332,-41.017
12920,0.846,-0.656,0.591,10.07,5.859,0.976,0,0,0,0,-34.282,-40.891
12940,0.817,-0.688,0.538,21.545,3.845,-1.831,0,0,0,0,-34.282,-40.627
12960,0.744,-0.631,0.503,23.254,2.624,-7.873,0,0,0,0,-34.359,-40.248
12980,0.688,-0.548,0.472,14.892,0.976,-12.878,0,0,0,0,-34.436,-40.078
13000,0.737,-0.567,0.412,9.216,2.197,-15.869,0,0,0,0,-34.694,-39.792
13020,0.786,-0.623,0.351,11.535,6.774,-15.441,0,0,0,0,-34.843,-39.638
13040,0.726,-0.661,0.326,12.695,12.329,-17.456,0,0,0,0,-34.892,-39.429
13060,0.726,-0.661,0.326,12.695,12.329,-17.456,0,0,0,0,-34.898,-39.309
13080,0.653,-0.616,0.337,7.507,8.361,0.549,0,0,0,0,-34.782,-39.133
13100,0.653,-0.616,0.337,7.507,8.361,0.549,0,0,0,0,-34.667,-39.177
13120,0.656,-0.606,0.354,-2.685,0.244,9.155,0,0,0,0,-34.546,-39.583
13140,0.562,-0.534,0.362,-21.362,-11.718,5.554,0,0,0,0,-34.573,-40.457
13160,0.563,-0.476,0.387,-25.878,-13.61,3.662,0,0,0,0,-34.722,-41.253
13180,0.563,-0.476,0.387,-25.878,-13.61,3.662,0,0,0,0,-34.881,-41.863
13200,0.595,-0.447,0.404,-28.381,-12.084,0.366,0,0,0,0,-35.079,-42.462
13220,0.617,-0.468,0.425,-28.381,-9.826,-2.563,0,0,0,0,-35.408,-43.385
13240,0.659,-0.483,0.491,-28.137,0.732,-13.427,0,0,0,0,-35.744,-44.121
13260,0.659,-0.483,0.491,-28.137,0.732,-13.427,0,0,0,0,-35.947,-44.445
13280,0.653,-0.452,0.52,-30.7,10.192,-20.751,0,0,0,0,-36.177,-44.686
13300,0.649,-0.486,0.553,-30.456,26.611,-35.4,0,0,0,0,-36.403,-44.769
13320,0.645,-0.5,0.566,-24.23,31.982,-43.701,0,0,0,0,-36.639,-44.527
13340,0.626,-0.513,0.575,-21.118,37.353,-54.138,0,0,0,0,-36.925,-43.917
13360,0.606,-0.539,0.588,-20.935,38.574,-56.762,0,0,0,0,-37.095,-43.467
13380,0.613,-0.583,0.586,-22.766,35.095,-55.297,0,0,0,0,-37.26,-43.033
13400,0.628,-0.625,0.583,-24.78,28.076,-49.621,0,0,0,0,-37.611,-42.429
13420,0.638,-0.657,0.567,-25.268,21.789,-43.701,0,0,0,0,-37.853,-42.242
13440,0.609,-0.641,0.559,-25.024,20.568,-41.198,0,0,0,0,-38.023,-42.154
13460,0.6,-0.612,0.554,-24.414,22.46,-42.846,0,0,0,0,-38.232,-42.006
13480,0.6,-0.612,0.554,-24.414,22.46,-42.846,0,0,0,0,-38.336,-41.918
13500,0.575,-0.581,0.564,-25.085,21.85,-43.151,0,0,0,0,-38.446,-41.819
13520,0.575,-0.581,0.564,-25.085,21.85,-43.151,0,0,0,0,-38.496,-41.77
13540,0.761,-0.658,0.551,-38.635,-9.277,-27.587,0,0,0,0,-39.49,-42.225
13560,0.847,-0.664,0.441,-41.992,-19.409,-4.394,0,0,0,0,-40.05,-43.423
13580,0.919,-0.59,0.333,-42.724,-17.944,20.202,0,0,0,0,-40.166,-44.11
13600,0.919,-0.59,0.333,-42.724,-17.944,20.202,0,0,0,0,-40.182,-44.494
13620,0.931,-0.482,0.254,-49.316,-5.249,38.574,0,0,0,0,-40.133,-45.719
13640,0.719,-0.348,0.206,-62.133,4.76,44.067,0,0,0,0,-38.737,-50.811
13660,0.772,-0.339,0.292,-67.321,5.004,35.339,0,0,0,0,-38.325,-52.646
13680,0.938,-0.39,0.396,-65.917,5.554,22.521,0,0,0,0,-38.215,-53.475
13700,1.005,-0.507,0.452,-59.509,12.939,13.854,0,0,0,0,-38.067,-54.607
13720,0.929,-0.619,0.448,-54.321,24.963,21.972,0,0,0,0,-37.699,-56.035
13740,0.815,-0.682,0.38,-49.865,41.625,22.705,0,0,0,0,-36.903,-57.079
13760,0.658,-0.637,0.348,-33.325,52.612,10.681,0,0,0,0,-36.21,-57.381
13780,0.583,-0.569,0.339,-22.155,51.086,8.666,0,0,0,0,-35.881,-57.398
13800,0.583,-0.569,0.339,-22.155,51.086,8.666,0,0,0,0,-35.408,-57.343
13820,0.544,-0.563,0.337,-15.991,45.166,0.793,0,0,0,0,-35.073,-57.205
13840,0.559,-0.583,0.4,-20.202,27.282,4.089,0,0,0,0,-34.359,-57.123
13860,0.602,-0.586,0.42,-23.01,20.08,9.033,0,0,0,0,-34.129,-57.282
13880,0.602,-0.586,0.42,-23.01,20.08,9.033,0,0,0,0,-34.057,-57.348
13900,0.643,-0.615,0.417,-27.282,18.554,10.925,0,0,0,0,-33.76,-57.716
13920,0.654,-0.642,0.416,-29.907,16.784,13.671,0,0,0,0,-33.442,-58.194
13940,0.675,-0.654,0.435,-27.526,3.417,21.057,0,0,0,0,-32.969,-59.1
13960,0.657,-0.621,0.436,-22.155,4.821,17.089,0,0,0,0,-32.623,-59.798
13980,0.655,-0.599,0.415,-13.427,6.591,4.211,0,0,0,0,-32.486,-60.161
14000,0.61,-0.604,0.38,-2.624,5.432,-5.981,0,0,0,0,-32.519,-60.194
14020,0.61,-0.604,0.38,-2.624,5.432,-5.981,0,0,0,0,-32.629,-60.15
14040,0.567,-0.63,0.351,4.882,2.929,-6.652,0,0,0,0,-32.783,-59.996
14060,0.555,-0.637,0.339,10.498,-3.601,5.432,0,0,0,0,-32.86,-59.793
14080,0.562,-0.641,0.377,11.474,-3.845,4.76,0,0,0,0,-32.86,-59.65
14100,0.59,-0.661,0.414,11.596,-3.784,-1.159,0,0,0,0,-32.92,-59.507
14120,0.595,-0.662,0.435,14.587,-3.479,-7.873,0,0,0,0,-33.085,-59.232
14140,0.595,-0.662,0.435,14.587,-3.479,-7.873,0,0,0,0,-33.189,-59.067
14160,0.65,-0.685,0.439,8.544,-5.676,-5.004,0,0,0,0,-33.601,-58.688
14180,0.655,-0.663,0.417,5.981,-6.042,-3.906,0,0,0,0,-33.7,-58.628
14200,0.655,-0.663,0.417,5.981,-6.042,-3.906,0,0,0,0,-33.755,-58.612
14220,0.658,-0.63,0.413,4.15,-6.652,-1.22,0,0,0,0,-34.035,-58.551
14240,0.667,-0.599,0.441,0.427,-4.577,-3.295,0,0,0,0,-34.266,-58.54
14260,0.669,-0.617,0.446,0,-1.464,-5.859,0,0,0,0,-34.513,-58.485
14280,0.677,-0.625,0.447,-1.708,0,-6.347,0,0,0,0,-34.711,-58.43
14300,0.677,-0.625,0.447,-1.708,0,-6.347,0,0,0,0,-34.804,-58.403
14320,0.67,-0.654,0.437,-5.92,0.915,-5.92,0,0,0,0,-35.029,-58.419
14340,0.67,-0.654,0.437,-5.92,0.915,-5.92,0,0,0,0,-35.068,-58.43
14360,0.62,-0.626,0.425,-5.31,5.676,-2.99,0,0,0,0,-35.271,-58.48
14380,0.581,-0.633,0.404,-5.615,9.155,-3.662,0,0,0,0,-35.299,-58.452
14400,0.581,-0.633,0.404,-5.615,9.155,-3.662,0,0,0,0,-35.299,-58.441
14420,0.56,-0.633,0.416,-6.103,9.338,-1.464,0,0,0,0,-35.255,-58.419
14440,0.564,-0.636,0.441,-6.347,10.253,-0.732,0,0,0,0,-35.222,-58.403
14460,0.572,-0.657,0.457,-6.347,11.901,-1.647,0,0,0,0,-35.062,-58.298
14480,0.573,-0.691,0.474,-4.211,10.07,1.159,0,0,0,0,-34.909,-58.211
14500,0.573,-0.691,0.474,-4.211,10.07,1.159,0,0,0,0,-34.81,-58.172
14520,0.569,-0.687,0.461,-3.601,9.277,3.051,0,0,0,0,-34.694,-58.139
14540,0.569,-0.687,0.461,-3.601,9.277,3.051,0,0,0,0,-34.656,-58.128
14560,0.569,-0.687,0.461,-3.601,9.277,3.051,0,0,0,0,-34.656,-58.128
14580,0.569,-0.687,0.461,-3.601,9.277,3.051,0,0,0,0,-34.656,-58.128
14600,0.569,-0.687,0.461,-3.601,9.277,3.051,0,0,0,0,-34.656,-58.128
14620,0.569,-0.687,0.461,-3.601,9.277,3.051,0,0,0,0,-34.656,-58.128
14640,0.613,-0.653,0.487,6.652,4.76,-2.624,0,0,0,0,-34.068,-57.711
14660,0.606,-0.638,0.488,6.53,6.286,-2.868,0,0,0,0,-34.09,-57.447
14680,0.605,-0.646,0.479,4.394,7.568,-1.403,0,0,0,0,-34.085,-57.068
14700,0.605,-0.646,0.479,4.394,7.568,-1.403,0,0,0,0,-34.085,-57.068
14720,0.605,-0.646,0.479,4.394,7.568,-1.403,0,0,0,0,-34.085,-57.068
14740,0.605,-0.646,0.479,4.394,7.568,-1.403,0,0,0,0,-34.085,-57.068
14760,0.605,-0.646,0.479,4.394,7.568,-1.403,0,0,0,0,-34.085,-57.068
14780,0.537,-0.666,0.465,2.319,7.019,-1.586,0,0,0,0,-33.535,-56.184
14800,0.537,-0.666,0.465,2.319,7.019,-1.586,0,0,0,0,-33.524,-56.145
14820,0.537,-0.666,0.465,2.319,7.019,-1.586,0,0,0,0,-33.524,-56.145
14840,0.537,-0.666,0.465,2.319,7.019,-1.586,0,0,0,0,-33.524,-56.145
14860,0.537,-0.666,0.465,2.319,7.019,-1.586,0,0,0,0,-33.524,-56.145
14880,0.537,-0.666,0.465,2.319,7.019,-1.586,0,0,0,0,-33.524,-56.145
14900,0.537,-0.666,0.465,2.319,7.019,-1.586,0,0,0,0,-33.524,-56.145
14920,0.524,-0.657,0.475,7.751,-5.249,2.563,0,0,0,0,-33.37,-55.761
14940,0.597,-0.644,0.482,10.559,-14.343,0.671,0,0,0,0,-33.755,-55.568
14960,0.611,-0.635,0.487,11.84,-14.648,-2.441,0,0,0,0,-33.986,-55.458
14980,0.611,-0.635,0.487,11.84,-14.648,-2.441,0,0,0,0,-33.986,-55.458
15000,0.611,-0.635,0.487,11.84,-14.648,-2.441,0,0,0,0,-33.986,-55.458
15020,0.611,-0.635,0.487,11.84,-14.648,-2.441,0,0,0,0,-33.986,-55.458
15040,0.611,-0.635,0.487,11.84,-14.648,-2.441,0,0,0,0,-33.986,-55.458
15060,0.615,-0.633,0.496,5.554,-3.479,-5.493,0,0,0,0,-35.007,-54.75
15080,0.573,-0.614,0.504,0.305,5.371,-2.685,0,0,0,0,-35.167,-54.327
15100,0.573,-0.614,0.504,0.305,5.371,-2.685,0,0,0,0,-35.161,-54.294
15120,0.573,-0.614,0.504,0.305,5.371,-2.685,0,0,0,0,-35.161,-54.294
15140,0.573,-0.614,0.504,0.305,5.371,-2.685,0,0,0,0,-35.161,-54.294
15160,0.573,-0.614,0.504,0.305,5.371,-2.685,0,0,0,0,-35.161,-54.294
15180,0.573,-0.614,0.504,0.305,5.371,-2.685,0,0,0,0,-35.161,-54.294
15200,0.571,-0.63,0.49,4.333,2.746,-3.417,0,0,0,0,-35.062,-53.854
15220,0.573,-0.616,0.5,4.394,2.441,-5.676,0,0,0,0,-35.095,-53.717
15240,0.573,-0.616,0.5,4.394,2.441,-5.676,0,0,0,0,-35.095,-53.717
15260,0.576,-0.615,0.514,4.028,2.441,-6.713,0,0,0,0,-35.189,-53.47
15280,0.579,-0.616,0.526,4.028,1.953,-5.859,0,0,0,0,-35.266,-53.267
15300,0.579,-0.616,0.526,4.028,1.953,-5.859,0,0,0,0,-35.266,-53.267
15320,0.579,-0.616,0.526,4.028,1.953,-5.859,0,0,0,0,-35.266,-53.267
15340,0.579,-0.616,0.526,4.028,1.953,-5.859,0,0,0,0,-35.266,-53.267
15360,0.579,-0.616,0.526,4.028,1.953,-5.859,0,0,0,0,-35.266,-53.267
15380,0.576,-0.614,0.509,3.906,1.159,-0.671,0,0,0,0,-35.425,-52.448
15400,0.567,-0.614,0.514,3.845,-1.22,0.793,0,0,0,0,-35.452,-52.201
15420,0.567,-0.614,0.514,3.845,-1.22,0.793,0,0,0,0,-35.452,-52.157
15440,0.567,-0.614,0.514,3.845,-1.22,0.793,0,0,0,0,-35.452,-52.157
15460,0.567,-0.614,0.514,3.845,-1.22,0.793,0,0,0,0,-35.452,-52.157
15480,0.586,-0.613,0.531,4.15,-4.089,0.488,0,0,0,0,-35.447,-51.976
15500,0.586,-0.613,0.531,4.15,-4.089,0.488,0,0,0,0,-35.48,-51.926
15520,0.596,-0.631,0.514,4.028,-3.234,0.244,0,0,0,0,-35.524,-51.871
15540,0.589,-0.644,0.503,3.173,-3.234,2.502,0,0,0,0,-35.529,-51.871
15560,0.572,-0.63,0.512,3.356,-3.173,5.249,0,0,0,0,-35.48,-51.871
15580,0.552,-0.616,0.509,5.432,-3.906,5.615,0,0,0,0,-35.386,-51.828
15600,0.569,-0.628,0.502,6.164,-6.591,4.333,0,0,0,0,-35.37,-51.8
15620,0.585,-0.629,0.513,7.08,-8.85,3.479,0,0,0,0,-35.386,-51.784
15640,0.585,-0.629,0.513,7.08,-8.85,3.479,0,0,0,0,-35.419,-51.773
15660,0.616,-0.617,0.521,9.46,-9.521,0.732,0,0,0,0,-35.584,-51.663
15680,0.613,-0.61,0.507,9.155,-8.666,-0.061,0,0,0,0,-35.716,-51.564
15700,0.599,-0.593,0.5,7.934,-6.652,-2.807,0,0,0,0,-35.859,-51.454
15720,0.595,-0.592,0.501,6.469,-4.15,-2.075,0,0,0,0,-35.958,-51.361
15740,0.59,-0.602,0.511,4.882,-2.807,-0.183,0,0,0,0,-36.046,-51.251
15760,0.587,-0.615,0.512,2.868,-1.77,2.258,0,0,0,0,-36.079,-51.179
15780,0.583,-0.612,0.513,1.22,-0.854,1.892,0,0,0,0,-36.068,-51.152
15800,0.583,-0.612,0.513,1.22,-0.854,1.892,0,0,0,0,-36.068,-51.152
15820,0.583,-0.612,0.513,1.22,-0.854,1.892,0,0,0,0,-36.068,-51.152
15840,0.586,-0.608,0.514,0.061,0.366,2.807,0,0,0,0,-36.018,-51.146
15860,0.606,-0.615,0.521,-0.793,3.295,-0.366,0,0,0,0,-35.936,-51.091
15880,0.588,-0.602,0.532,-1.037,6.469,-2.807,0,0,0,0,-35.908,-50.976
15900,0.574,-0.606,0.523,-2.441,7.751,-1.892,0,0,0,0,-35.864,-50.877
15920,0.574,-0.606,0.523,-2.441,7.751,-1.892,0,0,0,0,-35.831,-50.839
15940,0.562,-0.611,0.519,-3.173,8.056,-0.61,0,0,0,0,-35.76,-50.8
15960,0.557,-0.621,0.516,-2.441,7.873,0.671,0,0,0,0,-35.65,-50.756
15980,0.553,-0.627,0.527,-1.464,7.08,0.366,0,0,0,0,-35.474,-50.685
16000,0.549,-0.636,0.535,-0.976,4.516,0,0,0,0,0,-35.392,-50.646
16020,0.549,-0.636,0.535,-0.976,4.516,0,0,0,0,0,-35.392,-50.646
16040,0.562,-0.635,0.541,1.281,2.136,-1.586,0,0,0,0,-35.375,-50.57
16060,0.586,-0.629,0.544,4.028,-2.868,-1.037,0,0,0,0,-35.43,-50.443
16080,0.577,-0.62,0.533,4.394,-3.112,0.915,0,0,0,0,-35.48,-50.344
16100,0.57,-0.602,0.531,4.333,-2.624,4.882,0,0,0,0,-35.436,-50.311
16120,0.558,-0.606,0.535,4.272,-0.061,7.751,0,0,0,0,-35.304,-50.278
16140,0.558,-0.606,0.535,4.272,-0.061,7.751,0,0,0,0,-35.238,-50.256
16160,0.565,-0.612,0.542,3.234,-1.22,8.544,0,0,0,0,-35.117,-50.251
16180,0.565,-0.612,0.542,3.234,-1.22,8.544,0,0,0,0,-35.084,-50.256
16200,0.592,-0.633,0.549,5.065,-1.403,7.568,0,0,0,0,-34.876,-50.256
16220,0.579,-0.624,0.538,6.103,-0.915,6.347,0,0,0,0,-34.782,-50.218
16240,0.579,-0.624,0.538,6.103,-0.915,6.347,0,0,0,0,-34.782,-50.218
16260,0.567,-0.608,0.546,5.798,0.244,5.249,0,0,0,0,-34.661,-50.092
16280,0.56,-0.599,0.555,3.784,1.159,5.187,0,0,0,0,-34.524,-49.949
16300,0.591,-0.611,0.547,2.746,1.892,3.479,0,0,0,0,-34.436,-49.872
16320,0.617,-0.613,0.553,0.976,4.028,0.366,0,0,0,0,-34.387,-49.806
16340,0.636,-0.611,0.566,-0.915,9.46,-3.967,0,0,0,0,-34.359,-49.713
16360,0.64,-0.621,0.576,-3.295,15.319,-9.216,0,0,0,0,-34.332,-49.553
16380,0.64,-0.621,0.576,-3.295,15.319,-9.216,0,0,0,0,-34.326,-49.504
16400,0.629,-0.632,0.571,-3.845,21.484,-10.742,0,0,0,0,-34.266,-49.273
16420,0.629,-0.632,0.571,-3.845,21.484,-10.742,0,0,0,0,-34.222,-49.147
16440,0.609,-0.607,0.618,-0.671,52.368,0.488,0,0,0,0,-33.546,-48.466
16460,0.609,-0.607,0.618,-0.671,52.368,0.488,0,0,0,0,-33.376,-48.328
16480,0.575,-0.606,0.625,3.723,61.523,7.08,0,0,0,0,-32.744,-47.867
16500,0.487,-0.594,0.688,13.061,73.547,6.713,0,0,0,0,-30.371,-46.038
16520,0.522,-0.63,0.743,16.662,97.961,15.014,0,0,0,0,-28.322,-44.593
16540,0.522,-0.63,0.743,16.662,97.961,15.014,0,0,0,0,-27.921,-44.34
16560,0.463,-0.631,0.777,23.559,102.355,20.996,0,0,0,0,-26.669,-43.582
16580,0.463,-0.631,0.777,23.559,102.355,20.996,0,0,0,0,-25.317,-42.797
16600,0.372,-0.582,0.847,40.161,134.521,29.296,0,0,0,0,-22.653,-41.182
16620,0.372,-0.582,0.847,40.161,134.521,29.296,0,0,0,0,-22.653,-41.182
16640,0.372,-0.582,0.847,40.161,134.521,29.296,0,0,0,0,-22.653,-41.182
16660,0.361,-0.582,0.877,42.846,145.568,22.827,0,0,0,0,-20.17,-39.765
16680,0.361,-0.582,0.877,42.846,145.568,22.827,0,0,0,0,-19.533,-39.396
16700,0.361,-0.582,0.877,42.846,145.568,22.827,0,0,0,0,-19.533,-39.396
16720,0.361,-0.582,0.877,42.846,145.568,22.827,0,0,0,0,-19.533,-39.396
16740,0.361,-0.582,0.877,42.846,145.568,22.827,0,0,0,0,-18.248,-38.688
16760,0.29,-0.601,0.885,46.142,150.024,22.46,0,0,0,0,-16.248,-37.617
16780,0.29,-0.601,0.885,46.142,150.024,22.46,0,0,0,0,-16.248,-37.617
16800,0.214,-0.627,0.89,48.217,166.809,32.165,0,0,0,0,-14.809,-36.925
16820,0.09,-0.558,0.949,56.945,151.062,72.204,0,0,0,0,-6.547,-33.909
16840,-0.023,-0.458,1.079,52.124,145.141,63.964,0,0,0,0,3.218,-30.113
16860,-0.306,-0.426,0.962,90.637,93.139,54.626,0,0,0,0,13.233,-26.07
16880,-0.267,-0.435,0.934,99.06,84.35,65.612,0,0,0,0,15.342,-24.027
16900,-0.251,-0.448,0.931,100.524,53.588,66.894,0,0,0,0,17.308,-21.275
16920,-0.217,-0.427,0.942,114.135,18.005,57.556,0,0,0,0,17.473,-20.637
16940,-0.226,-0.366,0.943,138.244,12.939,52.001,0,0,0,0,18.435,-15.693
16960,-0.14,-0.45,0.981,102.661,22.521,49.194,0,0,0,0,18.572,-15.139
16980,-0.14,-0.45,0.981,102.661,22.521,49.194,0,0,0,0,18.841,-14.029
17000,-0.284,-0.276,0.993,46.813,3.967,23.62,0,0,0,0,19.335,-11.585
17020,-0.284,-0.276,0.993,46.813,3.967,23.62,0,0,0,0,19.335,-11.585
17040,-0.178,-0.202,0.868,50.109,-59.021,11.535,0,0,0,0,17.583,-8.547
17060,-0.159,-0.204,0.805,40.283,-62.744,-5.798,0,0,0,0,16.913,-8.162
17080,-0.159,-0.204,0.805,40.283,-62.744,-5.798,0,0,0,0,16.578,-7.97
17100,-0.117,-0.159,0.716,0.549,-75.561,-26.245,0,0,0,0,13.579,-7.531
17120,-0.086,-0.173,0.741,-16.113,-32.958,-31.677,0,0,0,0,10.513,-8.289
17140,-0.086,-0.173,0.741,-16.113,-32.958,-31.677,0,0,0,0,9.909,-8.635
17160,-0.126,-0.147,0.765,-14.526,-21.972,-35.522,0,0,0,0,9.772,-8.739
17180,-0.157,-0.116,0.777,-9.46,-15.686,-36.499,0,0,0,0,9.255,-9.129
17200,-0.157,-0.116,0.777,-9.46,-15.686,-36.499,0,0,0,0,9.058,-9.277
17220,-0.19,-0.077,0.767,-7.934,-12.39,-36.132,0,0,0,0,8.668,-9.596
17240,-0.251,-0.115,0.875,-20.812,-17.333,-35.888,0,0,0,0,8.272,-10.036
17260,-0.264,-0.191,0.958,-33.264,-19.531,-38.269,0,0,0,0,7.888,-10.618
17280,-0.261,-0.274,1.036,-42.175,-20.751,-39.916,0,0,0,0,7.432,-11.458
17300,-0.261,-0.274,1.036,-42.175,-20.751,-39.916,0,0,0,0,7.179,-11.947
17320,-0.222,-0.305,1.071,-35.766,-11.413,-33.874,0,0,0,0,6.306,-13.831
17340,-0.225,-0.295,1.064,-24.536,-7.019,-25.939,0,0,0,0,6.042,-14.523
17360,-0.221,-0.272,1.044,-15.136,-5.31,-17.395,0,0,0,0,5.905,-14.897
17380,-0.222,-0.236,1.021,-10.742,-4.028,-9.155,0,0,0,0,5.8,-15.216
17400,-0.222,-0.236,1.021,-10.742,-4.028,-9.155,0,0,0,0,5.789,-15.27
17420,-0.22,-0.228,1.004,-12.756,-3.784,-4.394,0,0,0,0,5.762,-15.578
17440,-0.181,-0.259,0.989,-23.742,1.77,4.638,0,0,0,0,5.844,-16.221
17460,-0.181,-0.259,0.989,-23.742,1.77,4.638,0,0,0,0,5.872,-16.336
17480,-0.145,-0.308,0.986,-22.705,-3.967,5.31,0,0,0,0,6.004,-17.193
17500,-0.145,-0.308,0.986,-22.705,-3.967,5.31,0,0,0,0,6.004,-17.193
17520,-0.145,-0.308,0.986,-22.705,-3.967,5.31,0,0,0,0,6.004,-17.193
17540,-0.145,-0.308,0.986,-22.705,-3.967,5.31,0,0,0,0,5.998,-17.303
17560,-0.142,-0.312,0.941,-22.399,-17.639,6.469,0,0,0,0,5.427,-18.462
17580,-0.142,-0.312,0.941,-22.399,-17.639,6.469,0,0,0,0,5.3,-18.676
17600,-0.07,-0.34,0.955,-23.864,1.647,2.929,0,0,0,0,5.202,-19.39
17620,-0.07,-0.34,0.955,-23.864,1.647,2.929,0,0,0,0,5.213,-19.511
17640,-0.07,-0.34,0.955,-23.864,1.647,2.929,0,0,0,0,5.213,-19.511
17660,-0.07,-0.34,0.955,-23.864,1.647,2.929,0,0,0,0,5.213,-19.511
17680,-0.138,-0.33,0.977,-9.765,18.066,-7.751,0,0,0,0,5.674,-20.934
17700,-0.138,-0.33,0.977,-9.765,18.066,-7.751,0,0,0,0,5.751,-20.983
17720,-0.161,-0.306,0.953,-11.657,20.507,-14.404,0,0,0,0,6.311,-21.384
17740,-0.168,-0.325,0.983,-17.333,19.775,-15.136,0,0,0,0,6.547,-21.593
17760,-0.168,-0.325,0.983,-17.333,19.775,-15.136,0,0,0,0,6.547,-21.593
17780,-0.168,-0.325,0.983,-17.333,19.775,-15.136,0,0,0,0,6.767,-21.868
17800,-0.216,-0.368,1.02,-13.488,14.526,4.943,0,0,0,0,7.344,-22.483
17820,-0.216,-0.368,1.02,-13.488,14.526,4.943,0,0,0,0,7.437,-22.543
17840,-0.151,-0.421,1.003,5.676,-8.3,20.935,0,0,0,0,7.899,-22.675
17860,-0.091,-0.437,0.995,9.765,-13.183,18.371,0,0,0,0,7.866,-22.527
17880,-0.091,-0.437,0.995,9.765,-13.183,18.371,0,0,0,0,7.866,-22.527
17900,-0.091,-0.437,0.995,9.765,-13.183,18.371,0,0,0,0,7.866,-22.527
17920,-0.052,-0.413,0.948,7.629,-10.07,15.014,0,0,0,0,7.503,-22.011
17940,-0.052,-0.413,0.948,7.629,-10.07,15.014,0,0,0,0,7.47,-21.961
17960,-0.052,-0.413,0.948,7.629,-10.07,15.014,0,0,0,0,7.47,-21.961
17980,-0.136,-0.338,0.849,13.183,-29.663,1.708,0,0,0,0,6.663,-21.373
18000,-0.136,-0.338,0.849,13.183,-29.663,1.708,0,0,0,0,6.405,-21.231
18020,-0.171,-0.291,0.844,18.737,-38.208,4.333,0,0,0,0,5.784,-20.808
18040,-0.33,-0.243,0.812,44.433,-57.006,3.784,0,0,0,0,4.427,-19.451
18060,-0.356,-0.203,0.784,53.894,-68.908,-20.629,0,0,0,0,3.026,-18.154
18080,-0.563,-0.073,0.797,51.574,-80.993,7.263,0,0,0,0,2.208,-17.358
18100,-0.535,-0.091,0.837,30.273,-95.947,-2.136,0,0,0,0,0.84,-16.627
18120,-0.634,0.047,0.888,26.733,-113.281,-1.708,0,0,0,0,-0.802,-16.045
18140,-0.553,0.056,0.963,24.353,-136.352,-13.671,0,0,0,0,-2.362,-15.639
18160,-0.339,-0.013,0.999,12.512,-139.953,-16.479,0,0,0,0,-4.724,-15.238
18180,-0.152,0.035,0.91,-16.479,-96.496,-3.906,0,0,0,0,-6.767,-15.232
18200,-0.152,0.035,0.91,-16.479,-96.496,-3.906,0,0,0,0,-7.575,-15.364
18220,0.179,-0.099,1.097,-69.519,-68.725,9.765,0,0,0,0,-8.805,-16.71
18240,0.474,-0.293,1.266,-113.708,-64.636,-8.605,0,0,0,0,-9.508,-17.83
18260,0.764,-0.462,1.441,-126.281,-75.744,-93.383,0,0,0,0,-12.821,-22.153
18280,0.764,-0.462,1.441,-126.281,-75.744,-93.383,0,0,0,0,-13.963,-23.269
18300,0.658,-0.884,1.41,-93.383,-20.507,-84.106,0,0,0,0,-17.067,-25.911
18320,0.658,-0.884,1.41,-93.383,-20.507,-84.106,0,0,0,0,-17.644,-26.674
18340,0.658,-0.884,1.41,-93.383,-20.507,-84.106,0,0,0,0,-17.644,-26.674
18360,1.001,-0.885,0.904,-79.833,106.384,-72.265,0,0,0,0,-17.325,-28.482
18380,1.001,-0.885,0.904,-79.833,106.384,-72.265,0,0,0,0,-17.325,-28.482
18400,1.013,-0.861,0.834,-116.394,110.351,14.953,0,0,0,0,-16.083,-29.965
18420,0.742,-0.739,0.654,-145.996,66.284,3.662,0,0,0,0,-12.925,-37.095
18440,0.276,-0.389,0.596,3.479,72.937,51.452,0,0,0,0,-10.673,-38.913
18460,0.427,-0.305,0.434,119.079,24.963,25.024,0,0,0,0,-9.541,-37.21
18480,-0.075,-0.533,0.529,122.009,10.009,29.907,0,0,0,0,-8.926,-34.98
18500,0.101,-0.316,0.509,139.648,-10.62,23.864,0,0,0,0,-8.739,-33.733
18520,0.078,-0.318,0.53,147.644,-28.93,18.981,0,0,0,0,-8.904,-29.558
18540,0.165,-0.295,0.582,136.718,-33.935,9.704,0,0,0,0,-9.547,-26.191
18560,0.176,-0.258,0.615,107.299,-37.475,1.77,0,0,0,0,-10.266,-24.082
18580,0.174,-0.274,0.672,91.491,-47.424,-10.681,0,0,0,0,-11.008,-22.725
18600,0.174,-0.274,0.672,91.491,-47.424,-10.681,0,0,0,0,-11.255,-22.274
18620,0.208,-0.299,0.727,77.392,-58.105,-10.009,0,0,0,0,-12.442,-20.786
18640,0.279,-0.254,0.794,75.256,-64.147,-18.371,0,0,0,0,-13.485,-19.654
18660,0.318,-0.174,0.863,58.654,-47.302,-20.324,0,0,0,0,-15.985,-16.979
18680,0.318,-0.16,0.917,52.429,-28.381,-11.535,0,0,0,0,-16.71,-15.803
18700,0.353,-0.159,0.955,38.94,-12.817,-2.502,0,0,0,0,-17.149,-14.672
18720,0.372,-0.129,0.964,28.015,-3.54,4.272,0,0,0,0,-17.243,-13.903
18740,0.372,-0.129,0.964,28.015,-3.54,4.272,0,0,0,0,-17.243,-13.903
18760,0.372,-0.129,0.964,28.015,-3.54,4.272,0,0,0,0,-17.243,-13.903
18780,0.33,-0.16,1.013,-14.953,0.183,5.737,0,0,0,0,-17.21,-13.82
18800,0.33,-0.16,1.013,-14.953,0.183,5.737,0,0,0,0,-17.204,-13.892
18820,0.33,-0.16,1.013,-14.953,0.183,5.737,0,0,0,0,-17.188,-14.024
18840,0.309,-0.184,1.027,-17.211,4.394,4.882,0,0,0,0,-17.094,-14.265
18860,0.296,-0.212,1.041,-14.587,4.943,4.821,0,0,0,0,-16.957,-14.556
18880,0.301,-0.228,1.012,-5.493,10.192,6.591,0,0,0,0,-16.506,-15.051
18900,0.291,-0.236,1.015,-1.342,11.047,5.798,0,0,0,0,-16.325,-15.106
18920,0.291,-0.236,1.015,-1.342,11.047,5.798,0,0,0,0,-16.133,-15.122
18940,0.302,-0.208,0.998,7.08,5.432,4.211,0,0,0,0,-15.88,-14.902
18960,0.312,-0.21,1.002,5.92,11.535,3.173,0,0,0,0,-15.677,-14.743
18980,0.282,-0.225,1.027,6.225,15.869,3.295,0,0,0,0,-15.369,-14.589
19000,0.272,-0.228,1.042,6.835,20.08,5.126,0,0,0,0,-15.183,-14.512
19020,0.272,-0.228,1.042,6.835,20.08,5.126,0,0,0,0,-14.859,-14.392
19040,0.287,-0.23,1.083,6.164,29.113,6.774,0,0,0,0,-14.26,-14.238
19060,0.284,-0.241,1.155,5.798,41.687,6.042,0,0,0,0,-13.419,-14.073
19080,0.247,-0.256,1.249,9.521,60.424,3.723,0,0,0,0,-12.502,-13.875
19100,0.207,-0.254,1.312,14.526,75.805,7.385,0,0,0,0,-11.425,-13.628
19120,0.171,-0.251,1.347,17.395,88.806,12.023,0,0,0,0,-10.2,-13.348
19140,0.142,-0.244,1.358,20.324,96.496,14.953,0,0,0,0,-7.849,-12.821
19160,0.089,-0.227,1.3,19.897,114.624,22.155,0,0,0,0,-2.378,-11.7
19180,0.033,-0.21,1.247,25.695,113.403,24.108,0,0,0,0,-1.796,-11.563
19200,0.033,-0.21,1.247,25.695,113.403,24.108,0,0,0,0,-0.06,-11.162
19220,0.033,-0.21,1.247,25.695,113.403,24.108,0,0,0,0,-0.06,-11.162
19240,-0.028,-0.156,1.099,29.418,96.801,22.277,0,0,0,0,2.598,-10.409
19260,-0.046,-0.136,1.02,28.808,87.463,19.592,0,0,0,0,4.515,-9.788
19280,-0.053,-0.118,0.866,21.667,63.537,14.709,0,0,0,0,7.651,-8.662
19300,-0.053,-0.118,0.866,21.667,63.537,14.709,0,0,0,0,7.959,-8.547
19320,-0.048,-0.106,0.823,19.592,55.664,12.878,0,0,0,0,9.651,-7.888
19340,-0.086,-0.073,0.763,18.066,57.983,9.887,0,0,0,0,11.519,-7.152
19360,-0.086,-0.073,0.763,18.066,57.983,9.887,0,0,0,0,11.519,-7.152
19380,-0.146,-0.053,0.739,17.517,46.081,7.934,0,0,0,0,13.353,-6.421
19400,-0.171,-0.045,0.736,11.596,32.043,2.685,0,0,0,0,14.282,-6.031
19420,-0.194,-0.053,0.757,6.469,21.606,-0.183,0,0,0,0,14.765,-5.861
19440,-0.194,-0.053,0.757,6.469,21.606,-0.183,0,0,0,0,14.869,-5.828
19460,-0.187,-0.072,0.826,1.525,20.385,-0.671,0,0,0,0,15.336,-5.751
19480,-0.21,-0.066,0.83,-0.427,16.662,-2.441,0,0,0,0,15.93,-5.745
19500,-0.239,-0.069,0.836,-2.868,9.948,-3.173,0,0,0,0,16.122,-5.811
19520,-0.238,-0.073,0.853,-5.31,2.563,-4.089,0,0,0,0,16.155,-5.932
19540,-0.252,-0.08,0.876,-6.652,-1.831,-5.126,0,0,0,0,16.122,-6.047
19560,-0.266,-0.083,0.913,-4.943,-6.042,-6.164,0,0,0,0,16.078,-6.113
19580,-0.271,-0.082,0.935,-3.601,-3.845,-5.676,0,0,0,0,15.957,-6.223
19600,-0.271,-0.082,0.935,-3.601,-3.845,-5.676,0,0,0,0,15.897,-6.289
19620,-0.271,-0.089,0.959,-4.394,-0.854,-4.943,0,0,0,0,15.869,-6.394
19640,-0.279,-0.098,0.979,-5.187,-4.089,-5.004,0,0,0,0,15.847,-6.421
19660,-0.282,-0.114,1.041,-5.981,2.563,-4.089,0,0,0,0,15.644,-6.866
19680,-0.282,-0.114,1.041,-5.981,2.563,-4.089,0,0,0,0,15.671,-6.965
19700,-0.3,-0.109,1.034,-3.173,-1.159,-3.417,0,0,0,0,15.688,-7.086
19720,-0.3,-0.109,1.034,-3.173,-1.159,-3.417,0,0,0,0,15.671,-7.124
19740,-0.297,-0.113,1.041,-1.586,-2.441,-2.624,0,0,0,0,15.628,-7.168
19760,-0.284,-0.121,1.056,2.502,0.549,-1.586,0,0,0,0,15.617,-7.163
19780,-0.284,-0.121,1.056,2.502,0.549,-1.586,0,0,0,0,15.617,-7.135
19800,-0.277,-0.112,1.046,5.981,3.662,-1.22,0,0,0,0,15.661,-7.031
19820,-0.293,-0.114,1.038,5.737,4.272,-0.488,0,0,0,0,15.699,-6.97
19840,-0.293,-0.115,1.036,4.394,2.99,0.976,0,0,0,0,15.825,-6.789
19860,-0.288,-0.104,1.021,3.234,5.126,1.525,0,0,0,0,15.946,-6.652
19880,-0.287,-0.106,1.035,6.469,11.352,2.807,0,0,0,0,16.138,-6.52
19900,-0.297,-0.094,1.026,9.277,13.305,2.746,0,0,0,0,16.397,-6.328
19920,-0.306,-0.085,1.006,7.263,10.559,2.197,0,0,0,0,16.633,-6.152
19940,-0.309,-0.088,0.996,3.295,6.958,2.38,0,0,0,0,16.798,-6.047
19960,-0.296,-0.091,0.994,1.525,8.605,2.685,0,0,0,0,16.924,-5.998
19980,-0.291,-0.088,0.993,1.159,15.563,3.112,0,0,0,0,17.16,-5.954
20000,-0.314,-0.086,0.974,0.244,19.165,3.723,0,0,0,0,17.611,-5.91
20020,-0.323,-0.09,0.962,-0.61,14.099,2.99,0,0,0,0,17.781,-5.905
20040,-0.323,-0.09,0.962,-0.61,14.099,2.99,0,0,0,0,17.781,-5.905
20060,-0.315,-0.093,0.954,0,8.544,2.502,0,0,0,0,18.045,-5.899
20080,-0.302,-0.075,0.947,3.906,7.69,2.441,0,0,0,0,18.347,-5.8
20100,-0.312,-0.072,0.95,5.432,7.69,2.624,0,0,0,0,18.495,-5.69
20120,-0.312,-0.072,0.95,5.432,7.69,2.624,0,0,0,0,18.495,-5.69
20140,-0.3,-0.059,0.916,3.173,4.577,1.953,0,0,0,0,18.77,-5.416
20160,-0.304,-0.054,0.897,-0.732,2.441,0.793,0,0,0,0,18.852,-5.339
20180,-0.304,-0.054,0.897,-0.732,2.441,0.793,0,0,0,0,18.88,-5.333
20200,-0.3,-0.055,0.868,-6.042,3.417,-0.976,0,0,0,0,18.989,-5.465
20220,-0.29,-0.055,0.84,-7.324,1.831,-1.831,0,0,0,0,19.017,-5.526
20240,-0.29,-0.055,0.84,-7.324,1.831,-1.831,0,0,0,0,19.022,-5.559
20260,-0.29,-0.055,0.84,-7.324,1.831,-1.831,0,0,0,0,19.039,-5.63
20280,-0.259,-0.049,0.785,-11.047,-9.521,-3.906,0,0,0,0,18.912,-5.855
20300,-0.175,-0.052,0.616,-22.888,-14.648,-8.728,0,0,0,0,18.319,-6.564
20320,-0.175,-0.052,0.616,-22.888,-14.648,-8.728,0,0,0,0,18.231,-6.685
20340,-0.098,-0.027,0.439,-38.879,-15.686,-12.023,0,0,0,0,17.951,-7.196
20360,-0.111,-0.109,0.316,-61.828,-62.805,-30.029,0,0,0,0,16.688,-9.234
20380,-0.082,-0.171,0.319,-37.963,-97.045,-32.531,0,0,0,0,14.71,-10.848
20400,0.088,-0.17,0.265,-15.563,-123.596,-27.282,0,0,0,0,11.722,-11.909
20420,0.296,-0.093,0.17,-18.066,-139.343,-30.273,0,0,0,0,9.53,-12.639
20440,0.296,-0.093,0.17,-18.066,-139.343,-30.273,0,0,0,0,8.003,-13.189
20460,0.348,-0.137,0.302,-17.395,-174.438,-44.555,0,0,0,0,4.202,-14.122
20480,0.469,-0.208,0.328,7.446,-231.262,-42.724,0,0,0,0,-2.867,-14.716
20500,0.69,-0.166,0.417,-8.239,-229.614,-36.865,0,0,0,0,-8.915,-15.496
20520,0.721,-0.291,0.751,-9.033,-248.657,-30.334,0,0,0,0,-12.678,-16.023
20540,0.737,-0.306,1.049,-15.747,-248.413,-32.287,0,0,0,0,-17.764,-16.715
20560,0.771,-0.267,1.372,-26.123,-222.534,-31.616,0,0,0,0,-22.571,-17.473
20580,0.771,-0.267,1.372,-26.123,-222.534,-31.616,0,0,0,0,-22.571,-17.473
20600,0.771,-0.267,1.372,-26.123,-222.534,-31.616,0,0,0,0,-22.571,-17.473
20620,0.875,-0.358,2.252,10.314,-142.944,-26.794,0,0,0,0,-33.464,-18.934
20640,0.875,-0.358,2.252,10.314,-142.944,-26.794,0,0,0,0,-34.815,-18.923
20660,0.82,-0.287,2.235,17.15,-99.975,-16.967,0,0,0,0,-36.166,-18.753
20680,0.759,-0.233,2.082,15.869,-57.434,-9.277,0,0,0,0,-37.073,-18.555
20700,0.501,-0.193,1.649,-6.225,6.835,1.464,0,0,0,0,-37.529,-18.319
20720,0.474,-0.192,1.455,-6.103,21.728,4.943,0,0,0,0,-36.886,-18.325
20740,0.457,-0.189,1.29,-0.183,29.235,5.554,0,0,0,0,-36.145,-18.248
20760,0.457,-0.189,1.29,-0.183,29.235,5.554,0,0,0,0,-35.744,-18.176
20780,0.463,-0.194,1.129,0.366,31.738,4.028,0,0,0,0,-34.947,-17.995
20800,0.475,-0.208,0.979,-8.666,35.949,4.333,0,0,0,0,-34.535,-18.001
20820,0.494,-0.229,0.85,-22.46,39.855,6.53,0,0,0,0,-33.486,-18.248
20840,0.494,-0.229,0.85,-22.46,39.855,6.53,0,0,0,0,-33.277,-18.33
20860,0.546,-0.272,0.707,-36.193,28.198,10.437,0,0,0,0,-32.343,-19.138
20880,0.546,-0.272,0.707,-36.193,28.198,10.437,0,0,0,0,-31.92,-19.709
20900,0.548,-0.264,0.848,-3.234,1.525,0.793,0,0,0,0,-31.536,-20.786
20920,0.517,-0.261,0.957,7.934,8.056,0.549,0,0,0,0,-31.36,-20.615
20940,0.517,-0.261,0.957,7.934,8.056,0.549,0,0,0,0,-31.311,-20.549
20960,0.446,-0.238,1.36,26.672,12.084,2.075,0,0,0,0,-30.811,-19.769
20980,0.538,-0.217,1.525,26.672,34.484,3.601,0,0,0,0,-29.987,-18.89
21000,0.561,-0.255,1.635,15.686,64.086,5.187,0,0,0,0,-28.74,-18.27
21020,0.545,-0.298,1.706,7.995,92.59,9.582,0,0,0,0,-27.416,-17.907
21040,0.516,-0.342,1.736,-2.99,121.826,13.366,0,0,0,0,-25.186,-17.567
21060,0.516,-0.342,1.736,-2.99,121.826,13.366,0,0,0,0,-25.186,-17.567
21080,0.492,-0.36,1.657,15.991,149.78,23.925,0,0,0,0,-22.39,-17.177
21100,0.506,-0.318,1.434,52.001,177.673,38.94,0,0,0,0,-16.49,-15.628
21120,0.48,-0.298,1.304,55.725,183.471,42.602,0,0,0,0,-12.881,-14.496
21140,0.52,-0.251,1.13,49.011,191.284,44.799,0,0,0,0,-8.261,-13.172
21160,0.481,-0.225,0.936,30.944,197.143,42.724,0,0,0,0,-5.443,-12.584
21180,0.371,-0.196,0.784,18.31,191.406,40.771,0,0,0,0,-1.669,-12.189
21200,0.371,-0.196,0.784,18.31,191.406,40.771,0,0,0,0,1.082,-12.046
21220,0.238,-0.156,0.556,15.747,148.132,29.357,0,0,0,0,6.459,-11.771
21240,0.214,-0.1,0.47,10.986,127.929,18.981,0,0,0,0,8.316,-11.799
21260,0.214,-0.1,0.47,10.986,127.929,18.981,0,0,0,0,8.898,-11.826
21280,0.123,-0.061,0.399,9.521,112.121,8.911,0,0,0,0,10.931,-11.859
21300,-0.008,-0.031,0.341,10.131,76.11,2.441,0,0,0,0,13.491,-11.596
21320,-0.061,-0.022,0.369,12.939,50.292,-3.173,0,0,0,0,15.216,-11.189
21340,-0.066,0.006,0.39,12.145,31.616,-5.187,0,0,0,0,15.743,-10.942
21360,-0.085,0.024,0.425,5.31,23.315,-5.859,0,0,0,0,16.259,-10.656
21380,-0.085,0.024,0.425,5.31,23.315,-5.859,0,0,0,0,16.479,-10.546
21400,-0.117,-0.009,0.498,-3.356,12.573,-8.544,0,0,0,0,16.534,-10.546
21420,-0.117,-0.009,0.498,-3.356,12.573,-8.544,0,0,0,0,16.638,-10.552
21440,-0.175,-0.032,0.591,-7.751,-3.234,-12.207,0,0,0,0,16.622,-10.656
21460,-0.224,-0.036,0.681,-7.019,-16.235,-13.549,0,0,0,0,16.435,-10.75
21480,-0.223,-0.076,0.859,-3.479,-25.024,-15.869,0,0,0,0,15.507,-10.898
21500,-0.246,-0.104,0.953,-0.305,-23.681,-15.93,0,0,0,0,14.71,-10.936
21520,-0.296,-0.122,1.087,4.394,-21.118,-15.441,0,0,0,0,14.035,-10.799
21540,-0.296,-0.122,1.087,4.394,-21.118,-15.441,0,0,0,0,13.925,-10.777
21560,-0.287,-0.152,1.143,-0.793,-15.258,-12.329,0,0,0,0,13.287,-10.728
21580,-0.286,-0.156,1.153,-2.258,-9.155,-10.131,0,0,0,0,12.941,-10.772
21600,-0.263,-0.146,1.136,-2.685,-3.967,-8.178,0,0,0,0,12.788,-10.816
21620,-0.263,-0.146,1.136,-2.685,-3.967,-8.178,0,0,0,0,12.716,-10.854
21640,-0.247,-0.137,1.102,-4.394,-1.22,-7.507,0,0,0,0,12.667,-10.925
21660,-0.254,-0.14,1.078,-5.004,0,-6.469,0,0,0,0,12.656,-11.013
21680,-0.251,-0.145,1.062,-1.77,1.037,-6.652,0,0,0,0,12.661,-11.041
21700,-0.237,-0.143,1.042,2.197,3.417,-6.896,0,0,0,0,12.711,-10.997
21720,-0.25,-0.133,0.996,4.15,5.065,-6.896,0,0,0,0,12.859,-10.859
21740,-0.253,-0.132,0.984,2.746,3.173,-7.263,0,0,0,0,12.919,-10.805
21760,-0.253,-0.132,0.984,2.746,3.173,-7.263,0,0,0,0,12.958,-10.766
21780,-0.248,-0.137,0.981,2.197,2.685,-7.446,0,0,0,0,12.969,-10.755
21800,-0.248,-0.137,0.981,2.197,2.685,-7.446,0,0,0,0,13.002,-10.728
21820,-0.242,-0.135,0.967,0.671,5.981,-6.347,0,0,0,0,13.095,-10.689
21840,-0.256,-0.133,0.967,-1.831,3.051,-6.164,0,0,0,0,13.309,-10.717
21860,-0.259,-0.142,0.97,-2.746,0.061,-6.713,0,0,0,0,13.337,-10.75
21880,-0.259,-0.142,0.97,-2.746,0.061,-6.713,0,0,0,0,13.337,-10.794
21900,-0.26,-0.15,0.979,-2.258,-0.671,-5.737,0,0,0,0,13.32,-10.843
21920,-0.255,-0.155,1.003,6.225,1.159,-6.347,0,0,0,0,13.309,-10.772
21940,-0.268,-0.149,1.008,7.69,1.525,-5.859,0,0,0,0,13.326,-10.678
21960,-0.268,-0.147,1.013,6.835,-0.671,-4.516,0,0,0,0,13.342,-10.53
21980,-0.268,-0.147,1.013,6.835,-0.671,-4.516,0,0,0,0,13.337,-10.458
22000,-0.264,-0.143,1.014,5.004,-1.708,-3.845,0,0,0,0,13.309,-10.343
22020,-0.262,-0.14,1.014,6.53,-0.976,-2.807,0,0,0,0,13.287,-10.167
22040,-0.269,-0.137,1.008,7.812,1.281,-1.77,0,0,0,0,13.32,-10.041
22060,-0.263,-0.129,1.002,10.253,2.319,-1.77,0,0,0,0,13.386,-9.777
22080,-0.267,-0.131,0.985,8.178,1.708,-1.22,0,0,0,0,13.43,-9.64
22100,-0.258,-0.126,0.977,3.662,-2.807,-2.014,0,0,0,0,13.436,-9.475
22120,-0.255,-0.121,0.991,5.859,-1.159,-2.807,0,0,0,0,13.397,-9.376
22140,-0.262,-0.112,0.987,5.371,0.122,-2.38,0,0,0,0,13.386,-9.244
22160,-0.262,-0.104,0.983,2.441,-2.075,-2.929,0,0,0,0,13.392,-9.135
22180,-0.262,-0.104,0.983,2.441,-2.075,-2.929,0,0,0,0,13.381,-9.096
22200,-0.237,-0.091,0.978,-9.277,-2.746,-9.948,0,0,0,0,13.353,-9.124
22220,-0.282,-0.136,0.989,-7.446,-5.92,-0.915,0,0,0,0,13.276,-9.299
22240,-0.236,-0.132,1.016,-11.352,-9.582,-3.234,0,0,0,0,13.161,-9.453
22260,-0.245,-0.114,1.014,-26.733,-18.432,15.991,0,0,0,0,12.705,-10.145
22280,-0.285,-0.194,1.048,-22.766,-22.521,27.038,0,0,0,0,12.409,-10.53
22300,-0.274,-0.192,1.106,-16.052,-20.996,32.531,0,0,0,0,12.106,-10.81
22320,-0.274,-0.192,1.106,-16.052,-20.996,32.531,0,0,0,0,11.909,-10.931
22340,-0.253,-0.154,1.135,22.277,-35.644,50.659,0,0,0,0,11.392,-10.508
22360,-0.253,-0.154,1.135,22.277,-35.644,50.659,0,0,0,0,11.145,-10.162
22380,-0.232,-0.164,1.142,22.705,-34.545,34.667,0,0,0,0,10.601,-9.519
22400,-0.238,-0.171,1.152,30.151,-30.822,35.339,0,0,0,0,9.981,-8.613
22420,-0.187,-0.136,1.182,47.851,-4.943,33.447,0,0,0,0,9.602,-6.937
22440,-0.211,-0.078,1.152,51.757,4.699,30.761,0,0,0,0,9.624,-5.844
22460,-0.206,-0.047,1.109,59.57,0.854,31.066,0,0,0,0,9.766,-4.652
22480,-0.206,-0.047,1.109,59.57,0.854,31.066,0,0,0,0,9.816,-3.663
22500,-0.242,-0.04,1.092,65.856,-10.742,38.085,0,0,0,0,9.783,-3.301
22520,-0.211,-0.018,1.064,57.8,-16.296,37.536,0,0,0,0,9.464,-1.246
22540,-0.146,0.049,0.986,42.053,-9.155,25.451,0,0,0,0,9.052,0.34
22560,-0.137,0.072,0.963,39.489,-3.356,27.832,0,0,0,0,8.887,1.279
22580,-0.184,0.046,0.943,38.208,-3.417,36.987,0,0,0,0,8.805,2.18
22600,-0.184,0.046,0.943,38.208,-3.417,36.987,0,0,0,0,8.767,2.62
22620,-0.215,0.1,0.919,20.629,-16.174,50.292,0,0,0,0,8.399,3.713
22640,-0.215,0.1,0.919,20.629,-16.174,50.292,0,0,0,0,8.151,4.141
22660,-0.202,0.206,0.945,28.625,-9.521,16.174,0,0,0,0,7.789,4.85
22680,-0.165,0.16,1.006,12.817,-15.136,18.737,0,0,0,0,7.597,5.449
22700,-0.165,0.16,1.006,12.817,-15.136,18.737,0,0,0,0,7.52,5.531
22720,-0.165,0.16,1.006,12.817,-15.136,18.737,0,0,0,0,7.366,5.701
22740,-0.157,0.168,1.087,21.85,-21.85,29.296,0,0,0,0,6.888,6.234
22760,-0.113,0.192,1.074,-29.602,-12.084,-2.807,0,0,0,0,6.278,5.707
22780,-0.114,0.122,1.09,-28.503,0.305,4.089,0,0,0,0,6.108,4.751
22800,-0.146,0.13,1.074,-40.405,8.605,5.615,0,0,0,0,6.295,3.988
22820,-0.179,0.125,1.052,-70.861,14.465,1.037,0,0,0,0,6.459,3.301
22840,-0.108,0.067,1.022,-80.2,7.69,-0.244,0,0,0,0,6.734,1.428
22860,-0.15,0.071,0.962,-67.016,2.502,-27.832,0,0,0,0,6.778,-0.818
22880,-0.15,0.071,0.962,-67.016,2.502,-27.832,0,0,0,0,6.817,-1.494
22900,-0.073,0.055,0.905,-7.141,12.207,-55.297,0,0,0,0,6.882,-1.878
22920,-0.073,0.055,0.905,-7.141,12.207,-55.297,0,0,0,0,6.926,-1.933
22940,-0.125,0.122,1.072,112.731,15.625,-40.222,0,0,0,0,7.531,0.324
22960,-0.032,-0.048,0.837,41.687,26.428,-75.134,0,0,0,0,8.377,2.285
22980,-0.032,-0.048,0.837,41.687,26.428,-75.134,0,0,0,0,8.767,2.686
23000,-0.128,-0.071,0.781,59.631,34.423,-35.522,0,0,0,0,8.953,2.933
23020,-0.128,-0.071,0.781,59.631,34.423,-35.522,0,0,0,0,9.135,3.18
23040,-0.128,-0.071,0.781,59.631,34.423,-35.522,0,0,0,0,9.321,3.422
23060,-0.137,-0.186,0.657,-35.827,56.213,24.719,0,0,0,0,10.958,3.828
23080,0.102,0.1,0.635,-9.155,28.747,62.072,0,0,0,0,14.688,4.317
23100,-0.148,0.095,0.7,-39.428,8.178,16.723,0,0,0,0,14.804,4.075
23120,-0.148,0.095,0.7,-39.428,8.178,16.723,0,0,0,0,14.864,3.751
23140,-0.34,0.172,0.875,-50.964,-81.726,15.686,0,0,0,0,14.111,3.153
23160,-0.294,0.211,1.068,-67.749,-194.946,-28.991,0,0,0,0,10.48,1.653
23180,-0.204,0.038,1.076,-0.976,-28.625,-15.625,0,0,0,0,8.854,1.499
23200,-0.204,0.038,1.076,-0.976,-28.625,-15.625,0,0,0,0,8.585,1.472
23220,-0.209,0.087,1.074,-9.46,-25.573,-19.104,0,0,0,0,8.217,1.351
23240,-0.164,0.071,1.089,-7.568,-22.338,-29.052,0,0,0,0,7.564,1.043
23260,-0.146,0.045,1.085,0.915,-11.84,-16.845,0,0,0,0,7.454,1.038
23280,-0.12,0.064,1.097,-3.54,-5.554,-14.16,0,0,0,0,7.25,0.977
23300,-0.102,0.043,1.078,-13.61,-8.728,-14.648,0,0,0,0,7.174,0.884
23320,-0.102,0.043,1.078,-13.61,-8.728,-14.648,0,0,0,0,7.13,0.812
23340,-0.102,0.043,1.078,-13.61,-8.728,-14.648,0,0,0,0,7.031,0.664
23360,-0.012,0.049,1.062,-26.245,-25.268,-45.837,0,0,0,0,6.547,0.027
23380,-0.203,-0.007,0.97,31.25,-27.648,-30.334,0,0,0,0,4.301,-1.356
23400,-0.203,-0.007,0.97,31.25,-27.648,-30.334,0,0,0,0,4.18,-1.208
23420,-0.103,-0.018,1.012,17.578,-31.372,-17.028,0,0,0,0,3.795,-0.834
23440,-0.036,0.006,1.023,12.878,-32.043,0.488,0,0,0,0,3.18,-0.527
23460,-0.038,0.071,1.042,-20.507,-8.911,-1.281,0,0,0,0,2.169,-0.439
23480,0.057,0.081,1.064,-25.878,-14.404,-17.456,0,0,0,0,1.955,-0.823
23500,0.057,0.081,1.064,-25.878,-14.404,-17.456,0,0,0,0,1.697,-1.164
23520,0.011,0.055,1.079,-27.404,-27.404,-37.536,0,0,0,0,1.115,-1.675
23540,0.068,-0.01,1.142,-37.231,-13,-41.198,0,0,0,0,0.379,-2.686
23560,0.068,0.018,1.087,-8.3,2.868,-61.34,0,0,0,0,0.104,-3.251
23580,0.068,0.018,1.087,-8.3,2.868,-61.34,0,0,0,0,0.076,-3.312
23600,0.068,0.018,1.087,-8.3,2.868,-61.34,0,0,0,0,0.065,-3.339
23620,0.008,0.025,1.076,-4.028,-0.122,-65.551,0,0,0,0,0.005,-3.356
23640,-0.093,-0.054,1.041,18.676,-20.08,-24.108,0,0,0,0,-0.983,-3.367
23660,-0.093,-0.054,1.041,18.676,-20.08,-24.108,0,0,0,0,-1.159,-3.175
23680,-0.106,-0.104,1.025,24.475,-8.789,-9.46,0,0,0,0,-1.345,-2.62
23700,-0.034,-0.034,0.981,23.071,-22.46,5.432,0,0,0,0,-1.549,-2.389
23720,0.017,-0.044,0.981,15.258,-58.288,16.235,0,0,0,0,-2.598,-1.95
23740,0.103,0.018,1.281,85.266,-30.273,8.056,0,0,0,0,-5.355,-1.241
23760,0.177,0.099,1.039,53.833,-1.342,-7.873,0,0,0,0,-5.817,0.318
23780,0.177,0.099,1.039,53.833,-1.342,-7.873,0,0,0,0,-5.861,1.181
23800,0.085,0.093,1.043,22.888,-3.601,-6.591,0,0,0,0,-5.877,1.312
23820,0.085,0.093,1.043,22.888,-3.601,-6.591,0,0,0,0,-5.888,1.439
23840,0.098,0.05,1.006,0.427,-5.249,-0.427,0,0,0,0,-5.96,1.708
23860,0.093,0.029,1.011,-1.586,12.084,4.211,0,0,0,0,-5.866,1.609
23880,0.094,0.03,0.993,1.647,13.61,5.676,0,0,0,0,-5.614,1.587
23900,0.094,0.03,0.993,1.647,13.61,5.676,0,0,0,0,-5.482,1.598
23920,0.046,0,0.877,59.326,11.901,3.54,0,0,0,0,-5.152,2.757
23940,0.135,0.06,1.023,98.51,25.512,1.037,0,0,0,0,-4.795,4.224
23960,0.135,0.06,1.023,98.51,25.512,1.037,0,0,0,0,-4.674,4.713
23980,0.078,0.15,1.039,183.654,43.212,13.122,0,0,0,0,-3.576,9.717
24000,0.008,0.247,1.044,-45.837,7.69,2.014,0,0,0,0,-2.812,11.87
24020,0.008,0.247,1.044,-45.837,7.69,2.014,0,0,0,0,-2.73,11.414
24040,0.008,0.247,1.044,-45.837,7.69,2.014,0,0,0,0,-2.686,11.195
24060,0.024,0.252,1.06,-8.3,16.479,-0.427,0,0,0,0,-1.983,10.892
24080,-0.027,0.178,1.104,0.122,13.61,-7.385,0,0,0,0,-1.812,10.887
24100,0.004,0.271,1.107,4.089,12.145,-17.517,0,0,0,0,-1.565,10.909
24120,0.004,0.271,1.107,4.089,12.145,-17.517,0,0,0,0,-1.483,10.936
24140,0.022,0.281,1.081,3.54,6.958,-19.287,0,0,0,0,-1.159,11.09
24160,0.005,0.237,1.065,7.934,-4.15,-11.047,0,0,0,0,-1.021,11.425
24180,0.002,0.207,1.051,4.943,-11.047,-6.774,0,0,0,0,-1.17,11.585
24200,-0.002,0.19,1.039,5.493,-14.099,-6.347,0,0,0,0,-1.45,11.705
24220,0.028,0.205,1.018,6.347,-13.183,-3.601,0,0,0,0,-1.571,11.771
24240,0.027,0.227,1.016,-2.685,-13.366,-1.647,0,0,0,0,-1.752,11.821
24260,0.024,0.208,1.01,-6.652,-10.375,-0.244,0,0,0,0,-2.087,11.689
24280,0.04,0.208,1.003,-7.751,-6.652,-0.793,0,0,0,0,-2.23,11.546
24300,0.045,0.221,0.998,-6.591,3.356,-1.22,0,0,0,0,-2.285,11.348
24320,0.045,0.221,0.998,-6.591,3.356,-1.22,0,0,0,0,-2.246,11.288
24340,0.04,0.224,0.985,-8.483,7.385,-0.427,0,0,0,0,-2.12,11.145
24360,0.027,0.214,0.967,-8.239,10.864,2.868,0,0,0,0,-1.878,10.958
24380,0.002,0.203,0.962,-5.676,11.474,8.789,0,0,0,0,-1.664,10.848
24400,-0.004,0.195,0.96,-2.624,9.948,11.291,0,0,0,0,-1.532,10.81
24420,0.007,0.204,0.958,3.54,9.643,12.329,0,0,0,0,-1.411,10.832
24440,0.007,0.204,0.958,3.54,9.643,12.329,0,0,0,0,-1.334,10.87
24460,0.018,0.25,1.038,5.798,3.662,4.211,0,0,0,0,-1.192,11.052
24480,0.023,0.262,1.058,6.896,0.122,-2.624,0,0,0,0,-1.142,11.2
24500,0.035,0.274,1.057,4.211,-1.586,-9.399,0,0,0,0,-1.126,11.42
24520,0.048,0.247,1.022,11.291,1.647,-12.939,0,0,0,0,-1.093,11.612
24540,0.048,0.247,1.022,11.291,1.647,-12.939,0,0,0,0,-1.06,11.744
24560,0.017,0.25,1.016,9.46,5.065,-12.451,0,0,0,0,-0.983,11.848
24580,-0.019,0.22,1.019,7.507,3.845,-9.155,0,0,0,0,-0.609,12.249
24600,0.017,0.214,0.971,11.352,1.342,-3.479,0,0,0,0,-0.56,12.403
24620,0.017,0.214,0.971,11.352,1.342,-3.479,0,0,0,0,-0.527,12.628
24640,0.132,0.214,1.019,-64.819,-15.319,10.62,0,0,0,0,-0.845,11.656
24660,0.037,0.218,0.942,-31.066,-10.803,-10.375,0,0,0,0,-1.038,11.041
24680,0.174,0.229,0.952,-8.178,-13.549,-3.662,0,0,0,0,-1.395,10.662
24700,0.086,0.23,0.998,2.99,-20.751,8.789,0,0,0,0,-1.84,10.7
24720,0.02,0.199,1.034,-4.577,-19.897,14.892,0,0,0,0,-2.389,10.623
24740,0.065,0.218,1.04,-13.061,-19.47,7.69,0,0,0,0,-2.708,10.437
24760,0.092,0.237,1.028,-4.089,-15.197,16.723,0,0,0,0,-3.098,10.327
24780,0.085,0.239,1.028,6.408,-10.864,21.423,0,0,0,0,-3.339,10.382
24800,0.032,0.249,1.043,5.737,-6.835,13.549,0,0,0,0,-3.647,10.585
24820,0.003,0.208,1.047,-0.976,-5.615,0.732,0,0,0,0,-3.702,10.574
24840,-0.055,0.164,1.052,0,-14.099,-1.708,0,0,0,0,-3.861,10.557
24860,-0.073,0.169,1.043,-5.371,-3.417,2.624,0,0,0,0,-3.905,10.519
24880,-0.073,0.169,1.043,-5.371,-3.417,2.624,0,0,0,0,-3.9,10.491
24900,-0.073,0.169,1.043,-5.371,-3.417,2.624,0,0,0,0,-3.9,10.458
24920,0.036,0.23,1.047,-4.821,-1.708,3.723,0,0,0,0,-3.916,10.349
24940,0.085,0.218,1.037,-0.122,-4.028,-15.502,0,0,0,0,-4.042,10.387
24960,0.084,0.208,1.025,0.854,-0.854,-15.197,0,0,0,0,-4.031,10.42
24980,0.079,0.195,1.021,1.281,0.854,-14.282,0,0,0,0,-3.988,10.469
25000,0.079,0.195,1.021,1.281,0.854,-14.282,0,0,0,0,-3.971,10.48
25020,0.079,0.195,1.021,1.281,0.854,-14.282,0,0,0,0,-3.971,10.48
25040,0.066,0.188,1.023,-0.244,3.906,-17.395,0,0,0,0,-3.746,10.563
25060,0.072,0.194,1.019,-1.647,5.004,-19.348,0,0,0,0,-3.63,10.563
25080,0.053,0.192,1.006,-4.089,4.089,-17.944,0,0,0,0,-3.345,10.519
25100,0.052,0.197,1.006,-2.99,4.638,-16.052,0,0,0,0,-3.158,10.458
25120,0.034,0.198,1.013,-1.77,4.577,-13.916,0,0,0,0,-2.966,10.431
25140,0.019,0.206,1.011,-2.014,4.455,-12.817,0,0,0,0,-2.812,10.415
25160,0.023,0.19,0.994,-6.042,5.737,-13.122,0,0,0,0,-2.68,10.36
25180,0.049,0.176,0.982,-7.751,7.019,-9.521,0,0,0,0,-2.554,10.266
25200,0.049,0.176,0.982,-7.751,7.019,-9.521,0,0,0,0,-2.466,10.195
25220,0.047,0.2,1,-5.126,4.028,-6.225,0,0,0,0,-2.4,10.134
25240,0.024,0.216,1.019,-1.77,1.464,-6.103,0,0,0,0,-2.263,10.063
25260,0.026,0.253,1.018,0,4.272,-7.812,0,0,0,0,-2.235,10.079
25280,0.042,0.254,0.994,-7.263,12.817,-14.892,0,0,0,0,-1.834,10.03
25300,0.11,0.159,0.972,-0.122,24.963,-9.033,0,0,0,0,-1.263,9.915
25320,0.099,0.179,0.959,7.202,24.963,-11.718,0,0,0,0,-0.45,10.063
25340,0.062,0.224,0.941,16.113,29.113,-0.793,0,0,0,0,-0.043,10.338
25360,0.084,0.291,0.872,21.789,33.386,17.272,0,0,0,0,0.494,10.838
25380,0.055,0.27,0.798,19.958,32.47,22.094,0,0,0,0,1.021,11.354
25400,0.033,0.234,0.72,11.108,29.968,9.399,0,0,0,0,1.664,11.799
25420,-0.025,0.189,0.697,4.394,20.751,4.333,0,0,0,0,1.961,11.898
25440,-0.069,0.198,0.75,-7.995,-2.685,12.268,0,0,0,0,2.032,11.87
25460,-0.095,0.218,0.82,-18.737,-33.142,19.47,0,0,0,0,1.834,11.727
25480,-0.023,0.272,0.872,-32.226,-51.94,10.559,0,0,0,0,0.812,11.189
25500,0.025,0.27,0.935,-36.071,-55.969,-1.525,0,0,0,0,-0.247,10.574
25520,0.033,0.261,1.038,-36.499,-52.917,-15.014,0,0,0,0,-1.29,9.915
25540,0.075,0.242,1.121,-36.621,-49.072,-28.869,0,0,0,0,-2.449,9.08
25560,0.134,0.182,1.15,-33.508,-41.748,-39.184,0,0,0,0,-2.861,8.761
25580,0.134,0.182,1.15,-33.508,-41.748,-39.184,0,0,0,0,-3.235,8.453
25600,0.16,0.144,1.147,-31.311,-33.813,-35.705,0,0,0,0,-3.576,8.151
25620,0.16,0.144,1.147,-31.311,-33.813,-35.705,0,0,0,0,-3.729,8.003
25640,0.126,0.159,1.129,-13.366,-24.108,-35.888,0,0,0,0,-4.85,7.141
25660,0.126,0.159,1.129,-13.366,-24.108,-35.888,0,0,0,0,-4.949,7.091
25680,0.128,0.15,1.101,-12.695,-21.24,-44.677,0,0,0,0,-5.031,7.047
25700,0.13,0.085,1.011,-4.516,-12.207,-40.832,0,0,0,0,-5.542,6.817
25720,0.13,0.085,1.011,-4.516,-12.207,-40.832,0,0,0,0,-5.625,6.8
25740,0.18,0.078,0.958,9.155,-18.798,-23.132,0,0,0,0,-6.234,7.058
25760,0.164,0.092,0.948,14.587,-24.536,-18.554,0,0,0,0,-6.591,7.294
25780,0.166,0.113,0.936,13.244,-23.803,-18.676,0,0,0,0,-6.937,7.531
25800,0.196,0.073,0.904,7.934,-19.104,-25.573,0,0,0,0,-7.531,7.871
25820,0.135,0.094,0.978,-1.525,-31.127,-26.794,0,0,0,0,-8.442,8.085
25840,0.136,0.106,1.013,-7.324,-40.039,-29.541,0,0,0,0,-8.964,8.036
25860,0.136,0.106,1.013,-7.324,-40.039,-29.541,0,0,0,0,-9.135,8.02
25880,0.094,0.136,1.152,-6.408,-40.893,-16.418,0,0,0,0,-10.063,8.02
25900,0.104,0.176,1.219,-8.728,-33.874,-6.774,0,0,0,0,-11.019,7.871
25920,0.151,0.192,1.256,-5.615,-30.761,-13.671,0,0,0,0,-11.293,7.827
25940,0.098,0.162,1.267,-0.366,-21.85,-6.958,0,0,0,0,-11.843,7.816
25960,0.138,0.172,1.252,7.507,-8.789,-6.286,0,0,0,0,-12.106,7.877
25980,0.138,0.172,1.252,7.507,-8.789,-6.286,0,0,0,0,-12.172,8.009
26000,0.119,0.156,1.242,12.573,-3.967,-3.234,0,0,0,0,-12.161,8.261
26020,0.119,0.156,1.242,12.573,-3.967,-3.234,0,0,0,0,-12.161,8.261
26040,0.171,0.154,1.182,14.892,-0.061,10.498,0,0,0,0,-12.079,8.75
26060,0.158,0.123,1.135,20.141,8.3,25.573,0,0,0,0,-11.964,8.992
26080,0.202,0.13,1.11,22.46,8.85,33.813,0,0,0,0,-11.771,9.453
26100,0.244,0.155,1.075,22.338,11.047,38.757,0,0,0,0,-11.711,9.651
26120,0.244,0.155,1.075,22.338,11.047,38.757,0,0,0,0,-11.711,9.651
26140,0.212,0.158,1.044,17.761,15.38,44.555,0,0,0,0,-11.634,9.821
26160,0.206,0.133,1.038,30.456,23.071,44.86,0,0,0,0,-11.442,10.03
26180,0.206,0.133,1.038,30.456,23.071,44.86,0,0,0,0,-11.37,10.123
26200,0.206,0.133,1.038,30.456,23.071,44.86,0,0,0,0,-11.37,10.123
26220,0.225,0.169,1.015,70.007,43.945,22.521,0,0,0,0,-10.541,11.431
26240,0.141,0.279,0.961,58.776,54.016,15.38,0,0,0,0,-8.322,14.562
26260,0.116,0.267,0.942,-1.892,38.391,31.005,0,0,0,0,-6.954,15.172
26280,0.135,0.247,0.947,-18.615,27.465,35.217,0,0,0,0,-6.58,14.99
26300,0.135,0.247,0.947,-18.615,27.465,35.217,0,0,0,0,-6.328,14.644
26320,0.049,0.287,0.962,-34.912,20.019,37.353,0,0,0,0,-6.004,13.881
26340,0.049,0.287,0.962,-34.912,20.019,37.353,0,0,0,0,-5.938,13.688
26360,0.125,0.226,0.962,-30.822,22.949,35.156,0,0,0,0,-5.745,13.145
26380,0.125,0.226,0.962,-30.822,22.949,35.156,0,0,0,0,-5.745,13.145
26400,0.125,0.226,0.962,-30.822,22.949,35.156,0,0,0,0,-5.542,12.628
26420,0.1,0.23,0.976,-20.202,24.169,43.09,0,0,0,0,-5.399,12.387
26440,0.023,0.245,1,29.052,23.986,39.55,0,0,0,0,-4.866,12.205
26460,0.031,0.379,0.972,-30.029,5.31,41.442,0,0,0,0,-4.46,12.524
26480,0.062,0.254,0.962,-101.44,-16.54,70.739,0,0,0,0,-4.619,11.859
26500,-0.104,0.262,0.997,-127.624,-26.489,54.809,0,0,0,0,-5.196,9.64
26520,-0.104,0.262,0.997,-127.624,-26.489,54.809,0,0,0,0,-5.333,8.992
26540,-0.104,0.262,0.997,-127.624,-26.489,54.809,0,0,0,0,-5.471,8.344
26560,-0.104,0.262,0.997,-127.624,-26.489,54.809,0,0,0,0,-5.471,8.344
26580,-0.104,0.262,0.997,-127.624,-26.489,54.809,0,0,0,0,-5.603,7.701
26600,-0.104,0.262,0.997,-127.624,-26.489,54.809,0,0,0,0,-5.603,7.701
26620,-0.104,0.262,0.997,-127.624,-26.489,54.809,0,0,0,0,-5.603,7.701
26640,0.086,0.237,1.052,-110.107,-26,5.371,0,0,0,0,-5.729,7.163
26660,0.086,0.237,1.052,-110.107,-26,5.371,0,0,0,0,-5.855,6.63
26680,0.087,0.122,0.982,-69.946,-17.578,46.63,0,0,0,0,-7.031,3.169
26700,0.087,0.122,0.982,-69.946,-17.578,46.63,0,0,0,0,-7.212,2.438
26720,0.008,0.05,1.011,-65.063,-2.685,37.414,0,0,0,0,-7.212,1.06
26740,-0.018,0.197,1.047,-2.746,9.094,16.418,0,0,0,0,-3.389,6.844
26760,0.052,0.104,1.046,1.892,4.394,34.729,0,0,0,0,-3.383,6.838
26780,0.052,0.104,1.046,1.892,4.394,34.729,0,0,0,0,-3.383,6.838
26800,0.052,0.104,1.046,1.892,4.394,34.729,0,0,0,0,-3.378,6.828
26820,0.052,0.104,1.046,1.892,4.394,34.729,0,0,0,0,-3.378,6.828
26840,0.02,0.101,1.017,0.793,0.244,16.601,0,0,0,0,-3.526,6.69
26860,0.012,0.084,1.015,3.417,1.647,17.395,0,0,0,0,-3.515,6.701
26880,0.012,0.084,1.015,3.417,1.647,17.395,0,0,0,0,-3.515,6.701
26900,-0.07,0.115,1.044,-0.427,2.197,-2.563,0,0,0,0,-3.449,6.86
26920,0.135,0.056,1.016,-7.568,5.371,-15.38,0,0,0,0,-3.323,6.806
26940,-0.02,0.163,1.041,-13.793,15.014,33.569,0,0,0,0,-2.444,7.283
26960,-0.208,0.113,1.066,-7.995,16.784,26.672,0,0,0,0,-2.059,7.069
26980,0.173,-0.154,1.016,-104.492,-9.765,13.122,0,0,0,0,-2.07,5.872
27000,0.173,-0.154,1.016,-104.492,-9.765,13.122,0,0,0,0,-2.191,4.729
27020,-0.081,-0.087,0.97,-54.138,-11.962,26.062,0,0,0,0,-2.389,3.065
27040,-0.081,-0.087,0.97,-54.138,-11.962,26.062,0,0,0,0,-2.433,2.768
27060,0.194,-0.288,0.852,24.536,-6.958,45.227,0,0,0,0,-2.878,1.296
27080,0.001,-0.075,0.909,137.023,13.916,65.795,0,0,0,0,-2.867,2.037
27100,0.001,-0.075,0.909,137.023,13.916,65.795,0,0,0,0,-2.675,3.977
27120,-0.006,0.188,1.067,117.431,1.892,74.523,0,0,0,0,-2.68,4.559
27140,0.033,0.233,1.105,42.297,-18.005,70.251,0,0,0,0,-2.85,6.514
27160,0.033,0.233,1.105,42.297,-18.005,70.251,0,0,0,0,-3.098,6.932
27180,0.045,0.163,1.024,-27.465,-30.822,51.147,0,0,0,0,-5.004,6.635
27200,0.07,0.146,1.021,-30.944,-27.465,40.039,0,0,0,0,-5.504,6.163
27220,0.07,0.146,1.021,-30.944,-27.465,40.039,0,0,0,0,-5.954,5.663
27240,0.194,0.168,1.12,-37.353,-31.738,28.198,0,0,0,0,-6.712,4.79
27260,0.014,0.037,1.114,-55.786,-37.597,30.334,0,0,0,0,-7.597,3.619
27280,0.105,0.086,1.069,13,-14.343,38.085,0,0,0,0,-8.168,3.147
27300,0.184,0.098,1.071,5.737,-4.516,31.433,0,0,0,0,-8.311,3.218
27320,0.087,0.168,1.075,16.784,2.807,24.23,0,0,0,0,-8.366,3.323
27340,0.1,0.202,1.041,-7.751,0.427,7.873,0,0,0,0,-8.294,3.543
27360,0.242,0.069,0.988,-12.512,-4.699,8.239,0,0,0,0,-8.421,3.197
27380,0.091,0.193,1.047,-5.432,-7.934,7.385,0,0,0,0,-8.475,3.169
27400,0.091,0.193,1.047,-5.432,-7.934,7.385,0,0,0,0,-8.475,3.169
27420,0.091,0.193,1.047,-5.432,-7.934,7.385,0,0,0,0,-8.503,3.158
27440,0.01,0.087,1.1,8.361,-10.07,-0.488,0,0,0,0,-8.613,3.29
27460,0.047,-0.009,1.093,30.273,3.295,-0.366,0,0,0,0,-8.492,4.822
27480,0.028,0.013,1.038,15.014,5.187,-5.432,0,0,0,0,-8.272,5.295
27500,0.038,0.035,1.048,19.47,0.976,26.123,0,0,0,0,-8.195,5.504
27520,0.038,0.035,1.048,19.47,0.976,26.123,0,0,0,0,-8.173,5.641
27540,0.024,0.021,1.052,19.958,1.403,48.278,0,0,0,0,-8.157,5.85
27560,0.048,0.046,1.073,-15.502,3.234,43.762,0,0,0,0,-8.113,5.383
27580,0.106,0.082,1.125,-99.792,-4.638,23.071,0,0,0,0,-8.206,3.323
27600,-0.043,0,1.096,-40.71,-10.192,46.569,0,0,0,0,-8.327,2.356
27620,0.189,0.036,1.107,16.174,-4.028,47.973,0,0,0,0,-8.464,2.532
27640,0.189,0.036,1.107,16.174,-4.028,47.973,0,0,0,0,-8.464,2.532
27660,0.16,0.064,1.112,5.92,-5.004,44.25,0,0,0,0,-8.497,2.532
27680,0.171,0.065,1.079,-4.577,2.197,40.161,0,0,0,0,-8.596,2.427
27700,0.171,0.065,1.079,-4.577,2.197,40.161,0,0,0,0,-8.591,2.329
27720,0.148,-0.067,0.957,-17.028,17.517,37.536,0,0,0,0,-8.085,0.994
27740,0.148,-0.067,0.957,-17.028,17.517,37.536,0,0,0,0,-7.921,0.741
27760,0.147,-0.076,0.912,-16.601,19.836,44.433,0,0,0,0,-7.542,0.225
27780,0.167,-0.089,0.914,-13.793,24.353,55.114,0,0,0,0,-6.69,-0.785
27800,0.157,-0.071,0.928,-13.244,28.991,45.776,0,0,0,0,-6.41,-0.988
27820,0.157,-0.071,0.928,-13.244,28.991,45.776,0,0,0,0,-6.13,-1.192
27840,0.208,-0.052,0.95,1.22,30.639,43.762,0,0,0,0,-5.718,-1.252
27860,0.083,-0.094,0.935,-2.197,29.418,40.771,0,0,0,0,-4.581,-1.647
27880,0.074,-0.105,0.961,-1.159,26.306,25.451,0,0,0,0,-4.02,-1.774
27900,0.074,-0.105,0.961,-1.159,26.306,25.451,0,0,0,0,-4.02,-1.774
27920,0.061,-0.065,0.982,-25.146,18.798,17.028,0,0,0,0,-3.499,-2.345
27940,0.123,-0.153,1.015,-69.03,7.69,29.235,0,0,0,0,-3.109,-4.96
27960,0.104,-0.04,1.07,-45.043,12.084,7.568,0,0,0,0,-2.856,-6.399
27980,0.119,-0.067,1.078,-57.373,8.972,11.169,0,0,0,0,-2.647,-7.311
28000,0.154,-0.119,1.119,-66.467,7.446,21.606,0,0,0,0,-2.482,-8.464
28020,0.154,-0.119,1.119,-66.467,7.446,21.606,0,0,0,0,-2.482,-8.464
28040,0.154,-0.119,1.119,-66.467,7.446,21.606,0,0,0,0,-2.367,-9.442
28060,0.188,-0.125,1.163,-59.082,-0.488,26.184,0,0,0,0,-2.362,-10.299
28080,0.178,-0.133,1.162,-46.02,-15.258,33.874,0,0,0,0,-2.416,-10.805
28100,0.201,-0.332,1.031,-21.057,-3.906,28.442,0,0,0,0,-2.894,-12.54
28120,0.201,-0.332,1.031,-21.057,-3.906,28.442,0,0,0,0,-2.894,-12.54
28140,0.183,-0.261,0.971,15.258,1.22,26.062,0,0,0,0,-2.839,-12.667
28160,0.078,-0.139,0.917,8.544,-14.099,39.123,0,0,0,0,-2.894,-12.145
28180,0.059,-0.175,0.956,4.394,-23.864,42.114,0,0,0,0,-3.103,-12.03
28200,0.071,-0.207,1.009,11.596,-29.724,35.583,0,0,0,0,-3.581,-11.865
28220,0.071,-0.207,1.009,11.596,-29.724,35.583,0,0,0,0,-3.691,-11.821
28240,0.089,-0.191,1.075,15.502,-33.569,32.897,0,0,0,0,-3.828,-11.749
28260,0.089,-0.191,1.075,15.502,-33.569,32.897,0,0,0,0,-3.96,-11.678
28280,0.105,-0.246,1.117,11.779,-37.841,33.874,0,0,0,0,-4.531,-11.464
28300,0.155,-0.343,1.022,4.943,-28.137,29.235,0,0,0,0,-5.57,-11.409
28320,0.155,-0.343,1.022,4.943,-28.137,29.235,0,0,0,0,-5.795,-11.442
28340,0.195,-0.301,0.99,7.263,-17.028,25.024,0,0,0,0,-6.201,-11.431
28360,0.202,-0.132,0.947,17.517,-6.103,13.305,0,0,0,0,-6.437,-11.134
28380,0.177,-0.089,0.948,21.423,-0.061,8.544,0,0,0,0,-6.536,-10.502
28400,0.185,-0.078,0.985,21.179,6.408,5.004,0,0,0,0,-6.427,-9.893
28420,0.195,-0.084,1.031,17.456,10.559,0.671,0,0,0,0,-6.344,-9.678
28440,0.195,-0.084,1.031,17.456,10.559,0.671,0,0,0,0,-6.3,-9.574
28460,0.201,-0.091,1.053,19.409,14.16,-6.835,0,0,0,0,-6.152,-9.239
28480,0.192,-0.08,1.065,24.841,16.296,-14.587,0,0,0,0,-5.866,-8.558
28500,0.17,-0.102,1.011,15.441,27.77,-26.489,0,0,0,0,-4.993,-7.289
28520,0.17,-0.102,1.011,15.441,27.77,-26.489,0,0,0,0,-4.888,-7.19
28540,0.169,-0.094,1.001,12.878,26.855,-28.442,0,0,0,0,-4.465,-6.833
28560,0.169,-0.094,1.001,12.878,26.855,-28.442,0,0,0,0,-4.367,-6.751
28580,0.136,-0.066,0.983,9.399,19.897,-28.381,0,0,0,0,-3.702,-6.168
28600,0.122,-0.054,0.979,2.868,15.502,-27.709,0,0,0,0,-3.471,-6.004
28620,0.109,-0.037,0.978,-1.159,12.329,-28.869,0,0,0,0,-3.378,-5.954
28640,0.105,-0.023,1,-1.77,8.3,-32.531,0,0,0,0,-3.246,-5.894
28660,0.105,-0.023,1,-1.77,8.3,-32.531,0,0,0,0,-3.208,-5.866
28680,0.102,-0.052,1.027,-4.943,3.601,-31.188,0,0,0,0,-3.202,-5.822
28700,0.097,-0.06,1.063,-1.77,5.737,-26.672,0,0,0,0,-3.169,-5.844
28720,0.101,-0.052,1.087,-0.183,5.981,-27.648,0,0,0,0,-3.142,-5.811
28740,0.101,-0.052,1.087,-0.183,5.981,-27.648,0,0,0,0,-3.109,-5.762
28760,0.099,-0.034,1.135,-0.366,4.333,-28.259,0,0,0,0,-3.103,-5.707
28780,0.047,-0.25,1.165,-4.699,7.324,-33.386,0,0,0,0,-3.076,-5.872
28800,0.054,-0.246,1.077,6.408,20.141,-37.048,0,0,0,0,-2.834,-5.927
28820,0.058,-0.171,0.978,13.183,27.832,-38.635,0,0,0,0,-2.515,-5.778
28840,0.058,-0.171,0.978,13.183,27.832,-38.635,0,0,0,0,-2.164,-5.597
28860,-0.002,-0.055,0.836,7.324,21.118,-39.428,0,0,0,0,-1.631,-5.278
28880,-0.012,-0.05,0.842,-1.77,16.296,-42.48,0,0,0,0,-1.285,-5.141
28900,-0.012,-0.05,0.842,-1.77,16.296,-42.48,0,0,0,0,-1.082,-5.136
28920,-0.001,-0.065,0.902,-14.038,13.366,-44.128,0,0,0,0,-0.983,-5.262
28940,0.01,-0.083,0.99,-22.033,12.939,-46.63,0,0,0,0,-0.84,-5.493
28960,0.01,-0.083,0.99,-22.033,12.939,-46.63,0,0,0,0,-0.796,-5.597
28980,0.015,-0.108,1.09,-25.024,15.075,-49.072,0,0,0,0,-0.565,-6.168
29000,0.018,-0.141,1.171,-22.338,19.165,-50.659,0,0,0,0,-0.455,-6.399
29020,0.007,-0.131,1.201,-0.061,29.296,-47.79,0,0,0,0,0.318,-6.992
29040,-0.005,-0.133,1.159,14.282,32.775,-46.02,0,0,0,0,1.082,-6.718
29060,-0.017,-0.124,1.093,27.343,34.79,-45.715,0,0,0,0,1.516,-6.328
29080,-0.024,-0.103,1.033,31.372,33.935,-42.541,0,0,0,0,1.807,-6.047
29100,-0.024,-0.103,1.033,31.372,33.935,-42.541,0,0,0,0,2.241,-5.597
29120,-0.042,-0.097,0.969,24.353,22.46,-33.264,0,0,0,0,2.927,-4.85
29140,-0.069,-0.12,0.944,13.549,13.549,-23.864,0,0,0,0,3.493,-4.268
29160,-0.069,-0.12,0.944,13.549,13.549,-23.864,0,0,0,0,3.614,-4.163
29180,-0.07,-0.126,0.972,5.859,8.544,-18.92,0,0,0,0,3.751,-4.086
29200,-0.073,-0.141,0.989,0.244,3.662,-15.502,0,0,0,0,3.845,-4.075
29220,-0.074,-0.151,0.98,-2.929,1.586,-13.244,0,0,0,0,3.916,-4.257
29240,-0.075,-0.152,0.966,-1.037,1.892,-14.282,0,0,0,0,3.922,-4.279
29260,-0.081,-0.152,0.95,-1.342,3.479,-14.526,0,0,0,0,3.96,-4.378
29280,-0.081,-0.152,0.95,-1.342,3.479,-14.526,0,0,0,0,4.01,-4.454
29300,-0.121,-0.118,0.975,-13.122,1.647,-12.207,0,0,0,0,4.108,-4.822
29320,-0.157,-0.153,1.021,-22.521,-2.197,-5.31,0,0,0,0,4.152,-5.482
29340,-0.157,-0.153,1.021,-22.521,-2.197,-5.31,0,0,0,0,4.152,-5.723
29360,-0.166,-0.19,1.048,-26.245,-2.99,-1.77,0,0,0,0,4.152,-6.273
29380,-0.172,-0.216,1.083,-25.024,-4.699,1.098,0,0,0,0,4.13,-6.954
29400,-0.184,-0.227,1.093,-18.615,-5.615,3.906,0,0,0,0,4.114,-7.157
29420,-0.181,-0.231,1.065,-11.291,-6.347,5.92,0,0,0,0,4.064,-7.624
29440,-0.166,-0.238,1.014,-10.314,-7.995,8.666,0,0,0,0,3.999,-7.866
29460,-0.141,-0.233,0.964,-16.784,-10.192,13.305,0,0,0,0,3.922,-8.146
29480,-0.117,-0.208,0.947,-22.521,-12.573,17.395,0,0,0,0,3.746,-8.701
29500,-0.093,-0.175,0.976,-20.324,-18.737,16.784,0,0,0,0,3.444,-9.25
29520,-0.093,-0.175,0.976,-20.324,-18.737,16.784,0,0,0,0,3.229,-9.547
29540,-0.087,-0.163,0.988,-18.127,-19.775,16.296,0,0,0,0,3.153,-9.629
29560,-0.087,-0.163,0.988,-18.127,-19.775,16.296,0,0,0,0,2.993,-9.799
29580,-0.068,-0.162,1.002,-13.977,-19.165,15.625,0,0,0,0,2.763,-10.008
29600,-0.054,-0.179,1.015,-5.249,-17.822,13.488,0,0,0,0,2.092,-10.387
29620,-0.064,-0.176,1.012,0.183,-16.357,10.437,0,0,0,0,1.752,-10.387
29640,-0.067,-0.168,1.015,-0.549,-16.174,8.85,0,0,0,0,1.56,-10.382
29660,-0.073,-0.162,1.038,-8.911,-18.066,8.85,0,0,0,0,1.345,-10.458
29680,-0.057,-0.201,1.079,-11.596,-20.69,3.54,0,0,0,0,1.109,-10.59
29700,-0.057,-0.201,1.079,-11.596,-20.69,3.54,0,0,0,0,0.829,-10.755
29720,-0.103,-0.18,1.117,5.798,-20.935,-9.094,0,0,0,0,0.021,-10.491
29740,-0.072,-0.153,1.11,12.329,-18.005,-8.728,0,0,0,0,-0.236,-10.316
29760,-0.072,-0.153,1.11,12.329,-18.005,-8.728,0,0,0,0,-0.324,-10.25
29780,-0.072,-0.153,1.11,12.329,-18.005,-8.728,0,0,0,0,-0.324,-10.25
29800,-0.072,-0.153,1.11,12.329,-18.005,-8.728,0,0,0,0,-0.324,-10.25
29820,-0.062,-0.178,1.065,12.329,-15.075,-2.502,0,0,0,0,-0.538,-10.052
29840,-0.001,-0.148,0.992,25.329,-9.155,-15.197,0,0,0,0,-0.977,-9.426
29860,-0.001,-0.148,0.992,25.329,-9.155,-15.197,0,0,0,0,-1.082,-9.162
29880,0.002,-0.068,1.015,87.341,0.915,-38.33,0,0,0,0,-1.499,-6.437
29900,-0.096,-0.019,1.054,27.893,-6.958,-6.042,0,0,0,0,-1.593,-4.493
29920,-0.106,0.003,1.085,18.249,-12.756,8.422,0,0,0,0,-1.884,-3.839
29940,-0.089,-0.037,1.038,17.822,-12.695,27.343,0,0,0,0,-2.175,-3.202
29960,-0.089,-0.037,1.038,17.822,-12.695,27.343,0,0,0,0,-2.208,-3.114
29980,-0.07,-0.014,1.033,16.113,-20.324,29.541,0,0,0,0,-2.351,-2.861
30000,-0.061,-0.015,1.046,8.911,-26.855,30.883,0,0,0,0,-3.01,-2.455
30020,-0.052,-0.061,1.08,-1.586,-30.395,33.447,0,0,0,0,-3.389,-2.51
30040,-0.025,-0.116,1.108,-6.835,-27.648,34.606,0,0,0,0,-3.861,-2.691
30060,0.005,-0.141,1.114,-4.638,-20.446,33.874,0,0,0,0,-4.213,-2.889
30080,0.017,-0.147,1.079,6.53,-10.864,31.555,0,0,0,0,-4.361,-2.922
30100,0.006,-0.11,1.031,15.075,-3.662,35.278,0,0,0,0,-4.416,-2.702
30120,0.008,-0.043,0.936,6.103,-6.774,50.659,0,0,0,0,-4.405,-2.471
30140,0.032,-0.038,0.958,2.197,-9.399,57.8,0,0,0,0,-4.482,-2.471
30160,0.032,-0.038,0.958,2.197,-9.399,57.8,0,0,0,0,-4.537,-2.493
30180,0.059,-0.06,0.999,-3.295,-11.84,62.133,0,0,0,0,-4.658,-2.625
30200,0.078,-0.083,1.038,-4.821,-12.878,65.795,0,0,0,0,-4.839,-2.845
30220,0.103,-0.126,1.063,-6.103,-12.695,68.237,0,0,0,0,-5.026,-3.114
30240,0.137,-0.147,1.07,-3.479,-10.864,65.856,0,0,0,0,-5.234,-3.433
30260,0.137,-0.147,1.07,-3.479,-10.864,65.856,0,0,0,0,-5.234,-3.433
30280,0.137,-0.147,1.07,-3.479,-10.864,65.856,0,0,0,0,-5.273,-3.493
30300,0.179,-0.152,1.006,17.211,1.342,44.677,0,0,0,0,-5.344,-3.389
30320,0.18,-0.127,0.961,16.906,6.652,35.522,0,0,0,0,-5.278,-3.18
30340,0.174,-0.078,0.934,11.169,12.207,28.198,0,0,0,0,-4.839,-2.735
30360,0.165,-0.081,0.938,4.821,11.84,28.625,0,0,0,0,-4.74,-2.719
30380,0.172,-0.093,0.959,-0.183,10.131,29.113,0,0,0,0,-4.597,-2.724
30400,0.172,-0.093,0.959,-0.183,10.131,29.113,0,0,0,0,-4.482,-2.779
30420,0.22,-0.116,1.019,-7.873,6.774,18.005,0,0,0,0,-4.361,-2.988
30440,0.248,-0.103,1.044,-10.009,6.286,11.718,0,0,0,0,-4.317,-3.202
30460,0.261,-0.076,1.06,-15.136,4.15,10.925,0,0,0,0,-4.301,-3.444
30480,0.27,-0.051,1.082,-18.615,0.732,9.765,0,0,0,0,-4.372,-3.922
30500,0.27,-0.051,1.082,-18.615,0.732,9.765,0,0,0,0,-4.389,-4.004
30520,0.234,-0.059,1.097,-3.356,-0.305,-5.798,0,0,0,0,-4.531,-4.251
30540,0.225,-0.05,1.077,9.521,3.723,-14.16,0,0,0,0,-4.63,-4.02
30560,0.204,-0.003,1.035,18.249,6.103,-19.287,0,0,0,0,-4.625,-3.905
30580,0.165,0.056,0.987,20.751,5.004,-18.005,0,0,0,0,-4.586,-3.301
30600,0.165,0.056,0.987,20.751,5.004,-18.005,0,0,0,0,-4.586,-3.301
30620,0.105,0.065,0.988,12.39,3.295,-15.93,0,0,0,0,-4.531,-2.493
30640,0.091,0.039,1.034,9.887,0.793,-17.089,0,0,0,0,-4.498,-1.955
30660,0.074,-0.008,1.068,12.695,-2.197,-22.399,0,0,0,0,-4.537,-1.724
30680,0.08,0.002,1.093,9.582,-4.516,-21.057,0,0,0,0,-4.619,-1.466
30700,0.107,0.026,1.135,-1.098,-5.859,-14.282,0,0,0,0,-4.773,-1.373
30720,0.136,0,1.175,-11.047,-4.394,-4.577,0,0,0,0,-4.855,-1.516
30740,0.161,-0.052,1.162,-12.145,0.915,2.99,0,0,0,0,-4.894,-1.757
30760,0.174,-0.054,1.12,-8.666,4.882,7.263,0,0,0,0,-4.844,-2.01
30780,0.163,-0.025,1.062,-4.882,2.136,4.577,0,0,0,0,-4.844,-2.076
30800,0.163,-0.025,1.062,-4.882,2.136,4.577,0,0,0,0,-4.844,-2.098
30820,0.163,-0.025,1.062,-4.882,2.136,4.577,0,0,0,0,-4.844,-2.098
30840,0.12,0.027,1.036,8.117,5.859,4.394,0,0,0,0,-4.768,-1.95
30860,0.129,0.045,1.006,14.77,9.399,10.437,0,0,0,0,-4.614,-1.647
30880,0.164,-0.007,1.016,-12.39,0.976,36.56,0,0,0,0,-4.4,-1.746
30900,0.164,-0.007,1.016,-12.39,0.976,36.56,0,0,0,0,-4.4,-1.746
30920,0.252,-0.113,1.023,-2.807,15.014,-1.464,0,0,0,0,-4.317,-1.972
30940,0.202,-0.095,0.935,-7.568,18.493,-30.883,0,0,0,0,-3.878,-2.109
30960,0.179,-0.082,0.937,-3.417,18.249,-45.104,0,0,0,0,-3.641,-2.219
30980,0.179,-0.082,0.937,-3.417,18.249,-45.104,0,0,0,0,-3.46,-2.241
31000,0.147,-0.063,0.944,-4.638,16.418,-53.222,0,0,0,0,-3.35,-2.263
31020,0.147,-0.063,0.944,-4.638,16.418,-53.222,0,0,0,0,-3.246,-2.285
31040,0.103,-0.131,0.964,-10.864,9.887,-64.025,0,0,0,0,-3.015,-2.406
31060,0.099,-0.181,0.99,-8.544,13.488,-71.35,0,0,0,0,-2.757,-2.763
31080,0.072,-0.196,0.951,-8.178,18.676,-73.913,0,0,0,0,-2.532,-2.911
31100,0.055,-0.198,0.933,-4.028,24.719,-75.622,0,0,0,0,-2.037,-3.092
31120,0.005,-0.175,0.93,3.234,29.296,-79.223,0,0,0,0,-1.636,-3.07
31140,-0.083,-0.126,0.967,4.516,29.052,-79.345,0,0,0,0,-1.213,-3.021
31160,-0.157,-0.105,1.036,1.342,24.169,-75.927,0,0,0,0,-0.538,-2.96
31180,-0.157,-0.105,1.036,1.342,24.169,-75.927,0,0,0,0,-0.538,-2.96
31200,-0.205,-0.086,1.103,-2.441,22.766,-74.096,0,0,0,0,-0.153,-2.977
31220,-0.221,-0.091,1.145,2.746,23.254,-73.242,0,0,0,0,0.477,-2.971
31240,-0.19,-0.15,1.161,-5.859,16.601,-55.053,0,0,0,0,1.213,-2.977
31260,-0.162,-0.151,1.143,-16.296,16.723,-40.71,0,0,0,0,1.587,-3.262
31280,-0.164,-0.13,1.092,-23.925,14.16,-26.855,0,0,0,0,1.856,-3.587
31300,-0.133,-0.096,1.067,-25.451,13.916,-9.155,0,0,0,0,2.345,-4.372
31320,-0.078,-0.087,1.019,-21.85,13.244,-0.244,0,0,0,0,2.565,-4.724
31340,-0.037,-0.094,0.975,-12.39,14.16,0.854,0,0,0,0,2.982,-5.196
31360,-0.005,-0.086,0.936,0,15.625,-2.685,0,0,0,0,3.257,-5.202
31380,0,-0.089,0.934,4.455,13.671,-5.92,0,0,0,0,3.422,-5.141
31400,-0.03,-0.105,0.953,1.525,10.742,-7.019,0,0,0,0,3.521,-5.125
31420,-0.069,-0.119,0.982,-6.408,9.155,-6.225,0,0,0,0,3.702,-5.158
31440,-0.083,-0.127,1.015,-10.62,7.934,-9.46,0,0,0,0,3.872,-5.339
31460,-0.087,-0.159,1.042,-10.498,8.911,-14.831,0,0,0,0,4.026,-5.592
31480,-0.1,-0.161,1.042,-10.681,10.009,-17.028,0,0,0,0,4.279,-5.998
31500,-0.1,-0.161,1.042,-10.681,10.009,-17.028,0,0,0,0,4.328,-6.064
31520,-0.113,-0.157,1.03,-9.704,10.681,-17.028,0,0,0,0,4.526,-6.311
31540,-0.113,-0.157,1.03,-9.704,10.681,-17.028,0,0,0,0,4.526,-6.311
31560,-0.143,-0.138,1.022,-10.742,6.225,-12.084,0,0,0,0,4.795,-6.74
31580,-0.155,-0.129,1.039,-15.075,2.441,-6.469,0,0,0,0,4.883,-7.036
31600,-0.139,-0.113,1.104,-16.967,0.061,-1.586,0,0,0,0,4.932,-7.619
31620,-0.121,-0.111,1.104,-12.512,2.014,-2.624,0,0,0,0,4.971,-7.893
31640,-0.121,-0.111,1.104,-12.512,2.014,-2.624,0,0,0,0,4.982,-7.948
31660,-0.093,-0.103,1.066,0.793,4.821,-5.493,0,0,0,0,5.13,-8.063
31680,-0.104,-0.104,1.041,3.54,4.089,-5.92,0,0,0,0,5.218,-7.981
31700,-0.104,-0.104,1.041,3.54,4.089,-5.92,0,0,0,0,5.218,-7.981
31720,-0.104,-0.104,1.041,3.54,4.089,-5.92,0,0,0,0,5.234,-7.959
31740,-0.108,-0.13,1.028,4.821,2.929,-7.141,0,0,0,0,5.284,-7.871
31760,-0.124,-0.127,1.027,7.751,2.563,-11.352,0,0,0,0,5.355,-7.542
31780,-0.133,-0.108,1.028,10.375,3.417,-12.023,0,0,0,0,5.41,-7.355
31800,-0.136,-0.107,1.023,12.39,3.54,-13.244,0,0,0,0,5.443,-7.245
31820,-0.138,-0.109,1.02,12.878,4.15,-12.084,0,0,0,0,5.548,-6.888
31840,-0.138,-0.12,1.032,13.427,4.577,-11.901,0,0,0,0,5.614,-6.701
31860,-0.147,-0.113,1.037,10.559,5.249,-9.643,0,0,0,0,5.734,-6.432
31880,-0.152,-0.106,1.047,10.498,5.615,-9.155,0,0,0,0,5.855,-6.234
31900,-0.149,-0.096,1.051,11.718,5.554,-8.789,0,0,0,0,5.971,-6.02
31920,-0.141,-0.081,1.063,12.084,4.516,-7.08,0,0,0,0,6.069,-5.778
31940,-0.122,-0.106,1.116,6.591,2.014,-1.464,0,0,0,0,6.124,-5.619
31960,-0.11,-0.192,1.185,-3.906,-1.647,4.76,0,0,0,0,6.113,-5.674
31980,-0.103,-0.202,1.128,1.647,0.976,1.525,0,0,0,0,6.119,-5.712
32000,-0.056,-0.147,0.987,14.343,4.516,0,0,0,0,0,6.152,-5.597
32020,-0.047,-0.111,0.869,17.761,4.211,1.525,0,0,0,0,6.19,-5.388
32040,-0.064,-0.054,0.83,11.169,-4.455,10.559,0,0,0,0,6.163,-4.943
32060,-0.105,-0.111,0.809,-0.976,-11.718,17.822,0,0,0,0,6.004,-4.888
32080,-0.095,-0.11,0.87,-10.07,-17.578,23.437,0,0,0,0,5.729,-5.026
32100,-0.091,-0.116,0.958,-14.404,-21.179,29.052,0,0,0,0,5.471,-5.196
32120,-0.091,-0.116,0.958,-14.404,-21.179,29.052,0,0,0,0,5.284,-5.317
32140,-0.116,-0.132,1.029,-15.441,-23.559,31.799,0,0,0,0,4.894,-5.586
32160,-0.132,-0.121,1.154,-16.296,-21.179,33.447,0,0,0,0,4.438,-5.932
32180,-0.108,-0.125,1.161,-15.319,-16.906,31.86,0,0,0,0,4.01,-6.328
32200,-0.066,-0.125,1.125,-9.277,-10.925,24.963,0,0,0,0,3.861,-6.465
32220,-0.018,-0.109,1.072,-3.845,-4.943,17.395,0,0,0,0,3.757,-6.553
32240,0.004,-0.088,1.037,0.915,1.831,10.62,0,0,0,0,3.691,-6.575
32260,-0.005,-0.06,1.016,5.065,7.019,5.31,0,0,0,0,3.784,-6.421
32280,-0.018,-0.079,0.996,5.31,9.094,6.347,0,0,0,0,3.933,-6.284
32300,-0.024,-0.084,0.984,4.638,8.239,5.493,0,0,0,0,4.048,-6.196
32320,-0.023,-0.116,0.976,0.183,5.554,4.516,0,0,0,0,4.141,-6.135
32340,-0.023,-0.116,0.976,0.183,5.554,4.516,0,0,0,0,4.141,-6.135
32360,-0.023,-0.116,0.976,0.183,5.554,4.516,0,0,0,0,4.141,-6.135
32380,-0.036,-0.163,1.015,-16.967,-6.469,2.624,0,0,0,0,4.064,-6.795
32400,-0.052,-0.165,1.025,-16.052,-9.094,1.281,0,0,0,0,3.9,-7.146
32420,-0.063,-0.165,1.03,-15.38,-10.803,1.647,0,0,0,0,3.751,-7.399
32440,-0.063,-0.165,1.03,-15.38,-10.803,1.647,0,0,0,0,3.647,-7.564
32460,-0.078,-0.146,1.008,-14.831,-10.803,4.15,0,0,0,0,3.295,-8.091
32480,-0.087,-0.139,0.985,-17.517,-10.375,6.835,0,0,0,0,3.076,-8.492
32500,-0.085,-0.147,0.972,-21.179,-10.009,10.131,0,0,0,0,2.927,-8.876
32520,-0.082,-0.167,0.969,-24.658,-10.009,12.695,0,0,0,0,2.861,-9.102
32540,-0.082,-0.167,0.969,-24.658,-10.009,12.695,0,0,0,0,2.796,-9.343
32560,-0.082,-0.167,0.969,-24.658,-10.009,12.695,0,0,0,0,2.763,-9.464
32580,-0.07,-0.195,1.011,-30.578,-10.375,16.967,0,0,0,0,2.537,-10.469
32600,-0.071,-0.196,1.04,-30.578,-9.582,18.615,0,0,0,0,2.406,-11.211
32620,-0.063,-0.203,1.058,-26.428,-4.089,18.981,0,0,0,0,2.356,-11.892
32640,-0.063,-0.203,1.058,-26.428,-4.089,18.981,0,0,0,0,2.367,-12.266
32660,-0.066,-0.207,1.04,-25.268,-0.793,18.859,0,0,0,0,2.444,-12.738
32680,-0.089,-0.202,1.013,-26.489,0.427,18.798,0,0,0,0,2.653,-13.568
32700,-0.098,-0.208,1.01,-26.855,-1.281,21.24,0,0,0,0,2.763,-14.057
32720,-0.104,-0.216,1.003,-29.174,-5.126,23.01,0,0,0,0,2.817,-14.441
32740,-0.104,-0.216,1.003,-29.174,-5.126,23.01,0,0,0,0,2.828,-14.573
32760,-0.125,-0.217,1.003,-33.325,-10.62,26.123,0,0,0,0,2.823,-15.161
32780,-0.113,-0.226,1.027,-32.592,-17.333,28.991,0,0,0,0,2.713,-15.743
32800,-0.13,-0.254,1.039,-28.015,-31.005,35.766,0,0,0,0,2.252,-16.633
32820,-0.13,-0.254,1.039,-28.015,-31.005,35.766,0,0,0,0,2.081,-16.875
32840,-0.13,-0.276,1.047,-26.672,-36.315,39.489,0,0,0,0,1.878,-17.111
32860,-0.098,-0.314,1.044,-18.737,-42.297,50.048,0,0,0,0,1.131,-17.836
32880,-0.08,-0.329,1.028,-10.375,-43.457,53.894,0,0,0,0,0.461,-18.226
32900,-0.068,-0.317,1.002,-4.028,-43.701,56.64,0,0,0,0,0.027,-18.319
32920,-0.065,-0.306,0.971,-0.915,-42.785,59.814,0,0,0,0,-0.368,-18.341
32940,-0.052,-0.306,0.966,-1.892,-42.663,62.805,0,0,0,0,-0.653,-18.363
32960,-0.043,-0.312,0.975,-1.831,-42.175,63.171,0,0,0,0,-0.928,-18.396
32980,-0.043,-0.312,0.975,-1.831,-42.175,63.171,0,0,0,0,-1.104,-18.418
33000,-0.025,-0.352,0.984,1.22,-38.391,63.171,0,0,0,0,-1.675,-18.484
33020,-0.021,-0.368,0.98,1.647,-36.01,62.805,0,0,0,0,-1.939,-18.511
33040,-0.019,-0.383,0.985,2.38,-33.447,61.157,0,0,0,0,-2.114,-18.539
33060,-0.016,-0.388,0.993,3.967,-31.188,58.654,0,0,0,0,-2.307,-18.561
33080,-0.015,-0.384,0.994,3.234,-29.663,58.044,0,0,0,0,-2.51,-18.566
33100,-0.01,-0.38,0.988,1.281,-27.954,58.166,0,0,0,0,-2.614,-18.588
33120,-0.01,-0.38,0.988,1.281,-27.954,58.166,0,0,0,0,-2.73,-18.649
33140,-0.004,-0.377,0.973,-0.061,-24.78,57.739,0,0,0,0,-2.757,-18.693
33160,0.014,-0.373,0.967,-1.708,-21.545,56.701,0,0,0,0,-2.796,-18.792
33180,0.025,-0.367,0.964,-2.685,-18.493,54.992,0,0,0,0,-2.785,-18.951
33200,0.035,-0.365,0.968,-1.77,-14.526,51.391,0,0,0,0,-2.724,-19.061
33220,0.039,-0.364,0.977,-1.281,-11.291,47.851,0,0,0,0,-2.598,-19.176
33240,0.037,-0.37,0.985,0.366,-7.995,44.25,0,0,0,0,-2.559,-19.187
33260,0.027,-0.375,0.992,1.159,-6.042,41.992,0,0,0,0,-2.362,-19.237
33280,0.016,-0.379,0.993,2.136,-4.943,40.649,0,0,0,0,-2.087,-19.259
33300,-0.01,-0.388,0.982,5.615,-5.615,37.353,0,0,0,0,-1.768,-19.165
33320,-0.026,-0.393,0.982,4.699,-6.774,37.17,0,0,0,0,-1.609,-19.116
33340,-0.026,-0.393,0.982,4.699,-6.774,37.17,0,0,0,0,-1.571,-19.105
33360,-0.033,-0.408,0.984,1.281,-9.399,38.452,0,0,0,0,-1.406,-19.099
33380,-0.034,-0.403,0.984,1.159,-9.887,38.696,0,0,0,0,-1.263,-19.138
33400,-0.036,-0.388,0.985,1.22,-9.826,39.916,0,0,0,0,-1.181,-19.154
33420,-0.031,-0.361,0.987,1.22,-9.887,41.198,0,0,0,0,-1.032,-19.165
33440,-0.031,-0.361,0.987,1.22,-9.887,41.198,0,0,0,0,-1.005,-19.165
33460,-0.016,-0.334,0.993,2.563,-10.131,41.503,0,0,0,0,-0.922,-19.143
33480,0,-0.309,0.99,4.76,-10.803,41.87,0,0,0,0,-0.812,-19.044
33500,0.047,-0.287,1.007,10.986,-12.329,41.015,0,0,0,0,-0.736,-18.72
33520,0.069,-0.296,1.025,13.549,-13.671,39.245,0,0,0,0,-0.752,-18.451
33540,0.069,-0.296,1.025,13.549,-13.671,39.245,0,0,0,0,-0.774,-18.308
33560,0.069,-0.296,1.025,13.549,-13.671,39.245,0,0,0,0,-0.774,-18.308
33580,0.075,-0.317,1.039,15.563,-15.319,34.912,0,0,0,0,-0.884,-17.99
33600,0.07,-0.33,1.094,19.042,-17.333,19.653,0,0,0,0,-1.181,-17.446
33620,0.081,-0.304,1.049,26.245,-11.84,5.065,0,0,0,0,-1.669,-16.545
33640,0.081,-0.304,1.049,26.245,-11.84,5.065,0,0,0,0,-1.724,-16.413
33660,0.086,-0.285,1.002,32.043,-8.3,0.122,0,0,0,0,-1.928,-15.798
33680,0.089,-0.262,0.952,35.644,-5.615,-3.845,0,0,0,0,-2.059,-15.276
33700,0.078,-0.236,0.901,34.24,-4.333,-5.981,0,0,0,0,-2.18,-14.743
33720,0.083,-0.214,0.891,23.62,-0.549,-9.277,0,0,0,0,-2.427,-13.513
33740,0.083,-0.214,0.891,23.62,-0.549,-9.277,0,0,0,0,-2.493,-13.15
33760,0.084,-0.211,0.914,18.676,2.807,-11.901,0,0,0,0,-2.504,-12.958
33780,0.08,-0.212,0.937,14.16,6.103,-14.404,0,0,0,0,-2.51,-12.612
33800,0.061,-0.199,0.981,8.178,10.314,-19.287,0,0,0,0,-2.362,-12.139
33820,0.065,-0.197,0.992,5.92,10.62,-21.24,0,0,0,0,-2.257,-11.969
33840,0.065,-0.197,0.992,5.92,10.62,-21.24,0,0,0,0,-2.202,-11.898
33860,0.078,-0.191,0.99,3.662,10.925,-23.01,0,0,0,0,-2.131,-11.815
33880,0.093,-0.19,0.985,0.976,10.559,-25.39,0,0,0,0,-2.076,-11.76
33900,0.093,-0.19,0.985,0.976,10.559,-25.39,0,0,0,0,-2.059,-11.749
33920,0.112,-0.169,1.006,-4.455,9.521,-28.259,0,0,0,0,-1.972,-11.744
33940,0.137,-0.149,1.044,-7.995,6.103,-28.137,0,0,0,0,-2.005,-11.854
33960,0.143,-0.133,1.067,-9.338,4.211,-27.465,0,0,0,0,-2.065,-11.942
33980,0.143,-0.133,1.067,-9.338,4.211,-27.465,0,0,0,0,-2.087,-11.964
34000,0.145,-0.139,1.083,-7.995,2.685,-28.503,0,0,0,0,-2.164,-12.024
34020,0.149,-0.144,1.077,-5.615,1.647,-31.738,0,0,0,0,-2.378,-12.073
34040,0.145,-0.138,1.038,-4.455,2.258,-39.062,0,0,0,0,-2.598,-12.057
34060,0.145,-0.138,1.038,-4.455,2.258,-39.062,0,0,0,0,-2.68,-12.052
34080,0.129,-0.131,1.033,-2.807,3.54,-43.029,0,0,0,0,-2.796,-12.024
34100,0.107,-0.139,1.023,0.244,4.821,-47.424,0,0,0,0,-2.933,-11.942
34120,0.084,-0.135,1.004,1.708,5.249,-50.048,0,0,0,0,-3.114,-11.749
34140,0.061,-0.126,0.968,-1.098,2.685,-49.865,0,0,0,0,-3.273,-11.579
34160,0.061,-0.126,0.968,-1.098,2.685,-49.865,0,0,0,0,-3.306,-11.563
34180,0.061,-0.126,0.968,-1.098,2.685,-49.865,0,0,0,0,-3.345,-11.541
34200,0.061,-0.129,0.971,-5.371,1.037,-47.668,0,0,0,0,-3.422,-11.519
34220,0.05,-0.161,1.028,-8.056,0.366,-41.381,0,0,0,0,-3.977,-11.733
34240,0.036,-0.16,1.031,-4.76,2.807,-38.818,0,0,0,0,-4.064,-11.771
34260,0.017,-0.153,1.022,-1.525,5.615,-36.071,0,0,0,0,-4.119,-11.76
34280,-0.012,-0.145,1.016,-0.976,7.446,-31.616,0,0,0,0,-4.081,-11.678
34300,-0.044,-0.147,1.016,-3.051,9.399,-24.291,0,0,0,0,-4.004,-11.64
34320,-0.044,-0.147,1.016,-3.051,9.399,-24.291,0,0,0,0,-3.883,-11.629
34340,-0.094,-0.148,1.035,-1.892,12.145,-11.901,0,0,0,0,-3.51,-11.623
34360,-0.111,-0.151,1.049,-2.075,12.451,-4.821,0,0,0,0,-3.284,-11.607
34380,-0.111,-0.151,1.049,-2.075,12.451,-4.821,0,0,0,0,-3.037,-11.596
34400,-0.126,-0.149,1.059,-2.441,12.512,2.258,0,0,0,0,-2.763,-11.596
34420,-0.109,-0.151,1.063,-2.075,12.634,18.31,0,0,0,0,-2.07,-11.607
34440,-0.083,-0.152,1.048,-0.427,12.878,25.512,0,0,0,0,-1.757,-11.607
34460,-0.083,-0.152,1.048,-0.427,12.878,25.512,0,0,0,0,-1.549,-11.596
34480,-0.071,-0.15,1.033,-1.159,12.817,32.47,0,0,0,0,-1.329,-11.585
34500,-0.071,-0.15,1.033,-1.159,12.817,32.47,0,0,0,0,-1.109,-11.585
34520,-0.071,-0.15,1.033,-1.159,12.817,32.47,0,0,0,0,-1.109,-11.585
34540,-0.06,-0.149,1.038,-3.051,12.512,39.733,0,0,0,0,-0.549,-11.612
34560,-0.042,-0.162,1.096,-0.793,9.826,47.058,0,0,0,0,-0.01,-11.618
34580,-0.015,-0.229,1.147,1.464,7.995,50.048,0,0,0,0,0.939,-11.546
34600,0.004,-0.24,1.129,3.173,8.544,49.743,0,0,0,0,1.203,-11.502
34620,0.026,-0.245,1.097,5.249,9.094,47.79,0,0,0,0,1.708,-11.354
34640,0.038,-0.241,1.064,4.699,8.972,45.776,0,0,0,0,2.098,-11.217
34660,0.048,-0.234,1.045,3.295,7.69,43.09,0,0,0,0,2.356,-11.129
34680,0.049,-0.225,1.024,3.906,6.042,38.879,0,0,0,0,2.51,-11.057
34700,0.051,-0.221,1.002,5.615,5.249,35.461,0,0,0,0,2.686,-10.931
34720,0.05,-0.22,0.973,11.779,7.446,32.592,0,0,0,0,2.878,-10.706
34740,0.05,-0.228,0.952,21.362,10.986,30.7,0,0,0,0,3.048,-10.431
34760,0.05,-0.228,0.952,21.362,10.986,30.7,0,0,0,0,3.114,-10.321
34780,0.023,-0.243,0.937,31.25,15.014,28.198,0,0,0,0,3.257,-10.063
34800,-0.018,-0.235,0.918,33.813,17.456,25.634,0,0,0,0,3.801,-9.129
34820,-0.078,-0.285,0.911,16.906,18.798,29.296,0,0,0,0,4.883,-8.096
34840,-0.078,-0.251,0.894,20.019,15.869,26,0,0,0,0,5.333,-7.805
34860,-0.078,-0.251,0.894,20.019,15.869,26,0,0,0,0,5.619,-7.547
34880,-0.104,-0.249,0.953,15.563,11.169,25.817,0,0,0,0,5.921,-7.272
34900,-0.132,-0.244,1.012,3.173,2.746,25.024,0,0,0,0,6.064,-7.234
34920,-0.164,-0.237,1.084,-21.057,-9.582,28.625,0,0,0,0,6.004,-7.542
34940,-0.166,-0.229,1.179,-36.376,-18.249,28.198,0,0,0,0,5.789,-8.168
34960,-0.161,-0.242,1.252,-37.902,-18.92,25.268,0,0,0,0,5.449,-9.069
34980,-0.127,-0.229,1.235,-26.306,-12.145,19.836,0,0,0,0,5.278,-9.569
35000,-0.127,-0.229,1.235,-26.306,-12.145,19.836,0,0,0,0,5.278,-9.569
35020,-0.076,-0.183,1.114,-12.695,-3.112,11.779,0,0,0,0,5.24,-9.799
35040,-0.02,-0.117,0.9,-3.356,8.056,1.403,0,0,0,0,5.322,-9.92
35060,-0.041,-0.139,0.851,5.187,9.277,-11.047,0,0,0,0,5.586,-9.854
35080,-0.041,-0.139,0.851,5.187,9.277,-11.047,0,0,0,0,5.641,-9.81
35100,-0.069,-0.179,0.904,1.831,6.469,-14.587,0,0,0,0,5.729,-9.805
35120,-0.118,-0.225,0.962,-4.272,3.723,-17.089,0,0,0,0,5.751,-9.92
35140,-0.141,-0.289,1.037,-8.117,2.014,-19.042,0,0,0,0,5.762,-10.222
35160,-0.135,-0.327,1.085,-6.896,1.953,-21.179,0,0,0,0,5.745,-10.415
35180,-0.136,-0.318,1.065,-5.004,2.929,-22.338,0,0,0,0,5.745,-10.535
35200,-0.136,-0.318,1.065,-5.004,2.929,-22.338,0,0,0,0,5.74,-10.695
35220,-0.159,-0.273,1.024,-7.873,2.258,-21.423,0,0,0,0,5.745,-10.942
35240,-0.167,-0.196,1.006,-18.31,-3.906,-13.977,0,0,0,0,5.69,-11.37
35260,-0.167,-0.196,1.006,-18.31,-3.906,-13.977,0,0,0,0,5.625,-11.656
35280,-0.144,-0.187,1.019,-17.517,-6.286,-11.84,0,0,0,0,5.482,-12.008
35300,-0.109,-0.185,1.031,-9.338,-6.164,-10.437,0,0,0,0,5.284,-12.332
35320,-0.115,-0.201,1.02,-0.61,-6.103,-11.718,0,0,0,0,4.976,-12.562
35340,-0.124,-0.216,1.014,1.22,-6.53,-12.756,0,0,0,0,4.822,-12.568
35360,-0.133,-0.227,1.014,1.281,-7.202,-13.549,0,0,0,0,4.663,-12.557
35380,-0.133,-0.227,1.014,1.281,-7.202,-13.549,0,0,0,0,4.619,-12.551
35400,-0.141,-0.234,1.026,0.549,-7.934,-14.465,0,0,0,0,4.493,-12.551
35420,-0.141,-0.234,1.026,0.549,-7.934,-14.465,0,0,0,0,4.405,-12.557
35440,-0.137,-0.233,1.041,0.305,-7.934,-15.625,0,0,0,0,4.268,-12.568
35460,-0.125,-0.213,1.037,3.417,-6.469,-19.653,0,0,0,0,3.817,-12.491
35480,-0.117,-0.205,1.029,4.699,-5.126,-20.935,0,0,0,0,3.658,-12.409
35500,-0.11,-0.195,1.021,7.202,-3.723,-22.033,0,0,0,0,3.521,-12.271
35520,-0.115,-0.193,1.023,9.155,-2.685,-22.644,0,0,0,0,3.405,-12.095
35540,-0.128,-0.242,1.061,6.164,-3.051,-20.874,0,0,0,0,3.279,-11.92
